File: data/nanoindent_maps/Duplex Steel 2um.csv
Index,Load,Depth,HARDNESS,MODULUS,H/E,X Position,Y Position,Z Position
Integer,mN,nm,GPa,GPa,None,µm,µm,µm
1,3.99826,197.561,4.22895,222.5,0.01901,0,397.9545,-3.8946
58,3.99926,203.406,3.99611,213.858,0.01869,0,283.988,-3.07004
115,3.99926,201.758,4.08959,203.795,0.02007,0,169.974,-2.21128
172,3.99919,195.607,4.35329,209.454,0.02078,0,55.95938,-1.35794
229,3.99923,213.929,3.64286,189.869,0.01919,2.00025,341.995,-3.41436
286,3.99929,200.083,4.13025,217.131,0.01902,2.00025,227.981,-2.56418
343,3.99912,198.541,4.21026,212.178,0.01984,2.00025,113.967,-1.70154
400,3.99907,207.598,3.88898,187.64,0.02073,2.00025,0,-0.81157
457,3.99924,190.892,4.59811,205.962,0.02233,4.0005,285.988,-2.95816
514,3.99925,199.291,4.20362,201.83,0.02083,4.0005,171.974,-2.06031
571,3.9991,193.77,4.48159,196.591,0.0228,4.0005,57.95962,-1.23039
628,3.99906,196.791,4.30954,205.012,0.02102,6.00075,343.995,-3.26757
685,3.99916,207.0266,3.87018,204.497,0.01893,6.00075,229.981,-2.41395
742,3.9994,199.106,4.17539,216.275,0.01931,6.00075,115.967,-1.54872
799,3.99877,223.202,3.33623,186.9782,0.01784,6.00075,1.95263,-0.67501
856,3.99879,176.605,5.57492,182.151,0.03061,8.001,287.988,-2.84248
913,3.99929,194.812,4.4126,202.201,0.02182,8.001,173.974,-1.96305
970,3.99941,204.9348,3.97194,197.412,0.02012,8.001,59.95988,-1.14539
1027,3.99914,192.897,4.4903,207.742,0.02161,10.00125,345.996,-3.19469
1084,3.99922,205.865,3.92642,200.3369,0.0196,10.00125,231.981,-2.32421
1141,3.9995,195.778,4.31014,223.468,0.01929,10.00125,117.967,-1.47936
1198,3.99917,209.716,3.7801,198.159,0.01908,10.00125,3.95288,-0.61455
1255,3.99939,210.565,3.73692,203.307,0.01838,12.0015,289.989,-2.7869
1312,3.99933,199.615,4.15787,214.119,0.01942,12.0015,175.974,-1.91796
1369,3.99939,203.147,4.01786,209.073,0.01922,12.0015,61.96013,-1.11083
1426,3.99912,207.884,3.86734,191.5334,0.02019,14.00175,347.996,-3.1483
1483,3.99899,196.9737,4.28324,211.578,0.02024,14.00175,233.982,-2.30058
1540,3.99939,202.14,4.02426,225.698,0.01783,14.00175,119.967,-1.45298
1597,3.99889,204.0493,4.05418,181.403,0.02235,14.00175,5.95312,-0.59152
1654,3.99954,205.122,3.9396,207.753,0.01896,16.002,291.989,-2.77546
1711,3.99949,198.454,4.18847,223.327,0.01875,16.002,177.975,-1.90563
1768,3.99943,209.659,3.77467,201.678,0.01872,16.002,63.96038,-1.09483
1825,3.99926,191.362,4.54566,215.411,0.0211,18.00225,349.996,-3.1688
1882,3.99953,198.118,4.2005,224.68,0.0187,18.00225,235.982,-2.31062
1939,3.99915,203.083,4.07351,188.758,0.02158,18.00225,121.968,-1.46831
1996,3.9989,205.652,3.93579,199.894,0.01969,18.00225,7.95338,-0.58449
2053,3.9994,210.976,3.75137,190.172,0.01973,20.0025,293.989,-2.78353
2110,3.99936,212.2087,3.6691,206.838,0.01774,20.0025,179.975,-1.89984
2167,3.99953,201.114,4.12551,200.876,0.02054,20.0025,65.96063,-1.11642
2224,3.999,194.908,4.3945,206.63,0.02127,22.00275,351.996,-3.1729
2281,3.99934,201.519,4.06593,218.241,0.01863,22.00275,237.982,-2.33381
2338,3.99889,198.794,4.2058,209.301,0.02009,22.00275,123.968,-1.48562
2395,3.99929,222.57,3.3935,170.527,0.0199,22.00275,9.95363,-0.57404
2452,3.99931,201.067,4.05306,234.063,0.01732,24.003,295.989,-2.8102
2509,3.99929,201.334,4.08127,214.869,0.01899,24.003,181.975,-1.92608
2566,3.99949,202.419,4.02806,218.232,0.01846,24.003,67.96088,-1.14142
2623,3.9994,196.897,4.31877,200.218,0.02157,26.00325,353.997,-3.194
2680,3.9994,182.0613,5.00027,234.537,0.02132,26.00325,239.982,-2.39224
2737,3.99924,192.854,4.4552,221.275,0.02013,26.00325,125.968,-1.51104
2794,3.99921,216.778,3.55625,183.704,0.01936,26.00325,11.95388,-0.59567
2851,3.99912,200.872,4.06469,232.159,0.01751,28.0035,297.99,-2.82554
2908,3.99929,196.5382,4.26855,226.157,0.01887,28.0035,183.975,-1.96357
2965,3.99946,201.802,4.04661,221.743,0.01825,28.0035,69.96113,-1.1713
3022,3.99941,201.098,4.07593,221.9797,0.01836,30.00375,355.997,-3.21727
3079,3.99927,196.387,4.26352,231.616,0.01841,30.00375,241.983,-2.41482
3136,3.99929,222.643,3.34982,189.2814,0.0177,30.00375,127.968,-1.51625
3193,3.99928,199.557,4.20521,197.014,0.02134,30.00375,13.95413,-0.64628
3250,3.99946,217.221,3.51252,197.011,0.01783,32.004,299.99,-2.83147
3307,3.99914,198.985,4.17995,216.506,0.01931,32.004,185.976,-2.01147
3364,3.99931,200.006,4.09357,236.53,0.01731,32.004,71.96137,-1.19781
3421,3.99922,198.147,4.23011,211.413,0.02001,34.00425,357.997,-3.27507
3478,3.99935,208.47,3.84403,191.715,0.02005,34.00425,243.983,-2.43144
3535,3.99915,194.806,4.37746,214.686,0.02039,34.00425,129.969,-1.57733
3592,3.99953,201.227,4.10232,208.0155,0.01972,34.00425,15.95438,-0.70034
3649,3.99951,203.959,3.97812,211.786,0.01878,36.0045,301.99,-2.88666
3706,3.99917,197.5643,4.23109,221.974,0.01906,36.0045,187.976,-2.05294
3763,3.99947,199.774,4.13678,220.331,0.01878,36.0045,73.96163,-1.23052
3820,3.99916,207.992,3.83119,205.008,0.01869,38.00475,359.997,-3.31356
3877,3.99938,202.956,4.03767,204.157,0.01978,38.00475,245.983,-2.48322
3934,3.99908,215.371,3.62019,177.904,0.02035,38.00475,131.969,-1.59835
3991,3.99867,193.6092,4.47516,200.879,0.02228,38.00475,17.95463,-0.75542
4048,3.99929,202.753,4.03289,209.677,0.01923,40.005,303.99,-2.91156
4105,3.99947,198.281,4.15277,245.06,0.01695,40.005,189.976,-2.09015
4162,3.99928,200.335,4.1263,214.078,0.01927,40.005,75.96188,-1.26926
4219,3.9991,202.494,4.06595,200.613,0.02027,42.00525,361.998,-3.363
4276,3.9993,202.72,4.04916,203.517,0.0199,42.00525,247.983,-2.52895
4333,3.99913,202.2258,4.01272,229.622,0.01748,42.00525,133.969,-1.64296
4390,3.99914,158.826,7.11889,184.137,0.03866,42.00525,19.95487,-0.80297
4447,3.99915,195.216,4.40661,197.715,0.02229,44.0055,305.991,-2.9494
4504,3.99931,200.032,4.11371,225.75,0.01822,44.0055,191.976,-2.12842
4561,3.99894,192.435,4.57666,188.881,0.02423,44.0055,77.96213,-1.3131
4618,3.99938,204.416,3.99292,197.609,0.02021,46.00575,363.998,-3.41029
4675,3.99931,199.477,4.2119,195.976,0.02149,46.00575,249.984,-2.57461
4732,3.99941,192.149,4.50054,217.445,0.0207,46.00575,135.969,-1.69178
4789,3.99928,199.119,4.18977,210.06,0.01995,46.00575,21.95513,-0.84687
4846,3.99899,198.044,4.2685,198.93,0.02146,48.006,307.991,-2.98095
4903,3.99949,198.692,4.19586,215.474,0.01947,48.006,193.977,-2.17975
4960,3.99922,205.582,3.95112,195.068,0.02026,48.006,79.96237,-1.32666
5017,3.9994,213.945,3.6109,204.766,0.01763,50.00625,365.998,-3.44168
5074,3.99925,196.501,4.25544,232.957,0.01827,50.00625,251.984,-2.6174
5131,3.99941,198.303,4.24031,204.893,0.0207,50.00625,137.97,-1.73574
5188,3.99903,203.487,4.02238,201.132,0.02,50.00625,23.95538,-0.90003
5245,3.9992,214.761,3.60292,194.435,0.01853,52.0065,309.991,-3.01121
5302,3.99927,199.543,4.11016,238.244,0.01725,52.0065,195.977,-2.21655
5359,3.99903,197.007,4.31355,200.079,0.02156,52.0065,81.96263,-1.36274
5416,3.99959,212.0219,3.6549,218.2699,0.01674,54.00675,367.998,-3.49912
5473,3.99945,196.944,4.24812,227.081,0.01871,54.00675,253.984,-2.64842
5530,3.99922,202.484,4.04823,207.955,0.01947,54.00675,139.97,-1.76697
5587,3.99921,211.714,3.72963,187.651,0.01988,54.00675,25.95563,-0.92924
5644,3.99951,210.294,3.75491,199.759,0.0188,56.007,311.991,-3.05577
5701,3.99915,200.138,4.10458,227.883,0.01801,56.007,197.977,-2.27128
5758,3.99915,203.376,4.01871,204.557,0.01965,56.007,83.96288,-1.37333
5815,3.99907,205.765,3.91539,206.713,0.01894,58.00725,369.999,-3.54859
5872,3.99959,197.31,4.23243,226.74,0.01867,58.00725,255.984,-2.68337
5929,3.99939,202.93,4.00826,217.465,0.01843,58.00725,141.97,-1.83341
5986,3.99909,201.041,4.13438,198.589,0.02082,58.00725,27.95587,-0.96865
6043,3.99927,202.547,4.02961,214.931,0.01875,60.0075,313.992,-3.13293
6100,3.99951,204.199,3.95822,216.446,0.01829,60.0075,199.977,-2.31599
6157,3.99914,203.751,4.00549,203.537,0.01968,60.0075,85.96313,-1.42977
6214,3.99916,208.204,3.8201,206.328,0.01851,62.00775,371.999,-3.59383
6271,3.99919,203.1371,4.01684,209.594,0.01916,62.00775,257.985,-2.72276
6328,3.99918,204.8627,3.94812,208.464,0.01894,62.00775,143.97,-1.90264
6385,3.99929,219.902,3.43785,189.486,0.01814,62.00775,29.95613,-0.99718
6442,3.9991,198.888,4.2224,201.5651,0.02095,64.008,315.992,-3.17862
6499,3.99942,201.401,4.05733,224.721,0.01805,64.008,201.978,-2.37298
6556,3.99915,193.719,4.43039,214.565,0.02065,64.008,87.96337,-1.48999
6613,3.99917,209.925,3.79163,189.995,0.01996,66.00825,373.999,-3.64548
6670,3.99929,202.009,4.0569,212.928,0.01905,66.00825,259.985,-2.77187
6727,3.99938,197.559,4.24523,216.184,0.01964,66.00825,145.971,-1.95356
6784,3.99907,210.5557,3.76237,192.053,0.01959,66.00825,31.95638,-1.05561
6841,3.99894,197.226,4.2796,208.484,0.02053,68.0085,317.992,-3.24096
6898,3.99939,208.844,3.77577,216.244,0.01746,68.0085,203.978,-2.42711
6955,3.99925,206.506,3.90189,199.8,0.01953,68.0085,89.96363,-1.52636
7012,3.99911,207.203,3.88161,196.6216,0.01974,70.00875,375.999,-3.68589
7069,3.99918,198.969,4.16765,222.218,0.01875,70.00875,261.985,-2.82462
7126,3.99894,196.242,4.3055,216.163,0.01992,70.00875,147.971,-2.01161
7183,3.99893,202.2268,4.04007,216.13,0.01869,70.00875,33.95663,-1.11388
7240,3.99911,200.849,4.15151,195.51,0.02123,72.009,319.992,-3.30995
7297,3.99919,203.322,3.99937,213.933,0.01869,72.009,205.978,-2.48374
7354,3.9991,194.345,4.41719,208.299,0.02121,72.009,91.96388,-1.59384
7411,3.99928,211.2533,3.7339,193.052,0.01934,74.00925,378,-3.71514
7468,3.99905,199.834,4.16218,208.25,0.01999,74.00925,263.985,-2.87864
7525,3.99913,196.856,4.23441,235.273,0.018,74.00925,149.971,-2.06829
7582,3.999,196.9263,4.31445,201.044,0.02146,74.00925,35.95687,-1.17618
7639,3.99902,197.538,4.28194,202.417,0.02115,76.0095,321.993,-3.37508
7696,3.99909,203.388,3.98641,218.645,0.01823,76.0095,207.978,-2.54107
7753,3.99903,197.0418,4.30133,203.739,0.02111,76.0095,93.96413,-1.64664
7810,3.99902,201.785,4.08886,203.513,0.02009,78.00975,380,-3.7789
7867,3.99931,199.921,4.11183,229.0152,0.01795,78.00975,265.986,-2.9244
7924,3.99932,215.837,3.53869,208.073,0.01701,78.00975,151.971,-2.10503
7981,3.99916,200.653,4.14717,200.19,0.02072,78.00975,37.95713,-1.23401
8038,3.9991,198.965,4.20166,208.01,0.0202,80.01,323.993,-3.42304
8095,3.9992,204.133,3.95659,218.3644,0.01812,80.01,209.979,-2.59956
8152,3.99897,196.9097,4.27873,214.493,0.01995,80.01,95.96438,-1.70086
8209,3.99906,205.132,4.0042,182.753,0.02191,82.01025,381.9525,-3.84037
8266,3.9992,216.088,3.55388,195.657,0.01816,82.01025,267.986,-2.96722
8323,3.9992,199.354,4.14115,226.695,0.01827,82.01025,153.972,-2.16807
8380,3.99913,202.337,4.09228,193.414,0.02116,82.01025,39.95738,-1.29999
8437,3.99921,200.532,4.10933,217.703,0.01888,84.0105,325.993,-3.47065
8494,3.99926,208.591,3.78634,215.661,0.01756,84.0105,211.979,-2.6531
8551,3.99926,203.557,4.02684,198.355,0.0203,84.0105,97.96463,-1.74702
8608,3.99907,203.072,4.08456,185.232,0.02205,86.01075,383.953,-3.89173
8665,3.99926,213.19,3.65251,197.539,0.01849,86.01075,269.986,-3.03301
8722,3.99917,202.601,4.00398,226.101,0.01771,86.01075,155.972,-2.21814
8779,3.99913,202.158,4.08367,199.377,0.02048,86.01075,41.95763,-1.37743
8836,3.9993,205.015,3.93825,210.182,0.01874,88.011,327.993,-3.50506
8893,3.99953,201.93,4.03447,225.056,0.01793,88.011,213.979,-2.70377
8950,3.99921,202.043,4.03257,223.489,0.01804,88.011,99.96488,-1.80523
9007,3.99899,210.093,3.83318,172.7491,0.02219,90.01125,385.953,-3.93991
9064,3.9992,202.016,4.03685,221.933,0.01819,90.01125,271.986,-3.11053
9121,3.99924,212.313,3.65047,214.663,0.01701,90.01125,157.972,-2.25525
9178,3.99909,204.773,4.00668,186.998,0.02143,90.01125,43.95788,-1.4276
9235,3.99912,201.8922,4.06205,212.754,0.01909,92.0115,329.994,-3.56519
9292,3.99949,203.8229,3.95137,227.579,0.01736,92.0115,215.979,-2.74514
9349,3.99924,197.698,4.18191,242.988,0.01721,92.0115,101.965,-1.86399
9406,3.99889,204.188,3.99242,201.334,0.01983,94.01175,387.953,-3.99477
9463,3.99944,202.519,4.01372,223.084,0.01799,94.01175,273.987,-3.16718
9520,3.99905,200.0326,4.14362,212.241,0.01952,94.01175,159.972,-2.32161
9577,3.99923,214.047,3.68685,171.307,0.02152,94.01175,45.95813,-1.46008
9634,3.99913,195.964,4.35132,204.0966,0.02132,96.012,331.994,-3.61705
9691,3.99924,214.731,3.57995,206.416,0.01734,96.012,217.98,-2.76837
9748,3.99903,195.923,4.35734,202.644,0.0215,96.012,103.965,-1.93089
9805,3.99915,200.7113,4.1087,214.544,0.01915,98.01225,389.9535,-4.03325
9862,3.99929,198.191,4.29215,189.193,0.02269,98.01225,275.987,-3.22868
9919,3.99938,197.696,4.23867,216.328,0.01959,98.01225,161.973,-2.38323
9976,3.99924,201.862,4.03095,228.095,0.01767,98.01225,47.95838,-1.51312
10033,3.99908,223.175,3.3442,183.619,0.01821,100.0125,333.994,-3.62669
10090,3.99919,213.421,3.61458,212.605,0.017,100.0125,219.98,-2.81205
10147,3.99911,221.856,3.38886,182.43,0.01858,100.0125,105.966,-1.97215
10204,3.99901,198.421,4.2782,190.071,0.02251,102.013,391.954,-4.09678
10261,3.99905,206.296,3.89861,204.706,0.01904,102.013,277.987,-3.26472
10318,3.99936,207.429,3.87974,193.874,0.02001,102.013,163.973,-2.43422
10375,3.99883,205.75,3.93964,196.704,0.02003,102.013,49.95862,-1.56221
10432,3.99922,209.039,3.80946,196.734,0.01936,104.013,335.994,-3.68984
10489,3.99939,197.036,4.22098,238.095,0.01773,104.013,221.98,-2.87777
10546,3.99919,202.069,4.07456,204.423,0.01993,104.013,107.966,-2.04765
10603,3.99893,220.376,3.46871,169.325,0.02049,106.013,393.954,-4.11753
10660,3.99907,216.126,3.52834,208.193,0.01695,106.013,279.987,-3.30365
10717,3.99886,197.785,4.24748,210.8937,0.02014,106.013,165.973,-2.47172
10774,3.9992,203.9934,4.03433,188.863,0.02136,106.013,51.95888,-1.62729
10831,3.99912,202.63,4.0777,194.092,0.02101,108.0135,337.995,-3.76436
10888,3.99874,199.061,4.15379,226.509,0.01834,108.0135,223.98,-2.92956
10945,3.99921,200.4609,4.15727,199.633,0.02082,108.0135,109.966,-2.07911
11002,3.999,204.003,4.01688,194.889,0.02061,110.014,395.954,-4.19701
11059,3.99905,205.065,3.94842,204.678,0.01929,110.014,281.988,-3.38012
11116,3.99911,203.565,4.04931,189.958,0.02132,110.014,167.973,-2.51687
11173,3.99912,194.895,4.40072,204.753,0.02149,110.014,53.95913,-1.67239
11230,3.99913,193.372,4.49811,197.642,0.02276,112.014,339.995,-3.81176
11287,3.99905,202.711,3.98281,234.899,0.01696,112.014,225.981,-2.9824
11344,3.99912,205.571,3.94408,197.975,0.01992,112.014,111.966,-2.12786
11401,3.9989,204.232,4.00854,194.388,0.02062,114.014,397.9545,-4.2504
11458,3.9991,213.98,3.648,186.85,0.01952,114.014,283.988,-3.40784
11515,3.99905,192.853,4.4694,215.835,0.02071,114.014,169.974,-2.55381
11572,3.99898,200.033,4.17014,201.79,0.02067,114.014,55.95938,-1.71552
11629,3.999,191.853,4.56423,200.9768,0.02271,116.0145,341.995,-3.86836
11686,3.99898,221.066,3.37109,204.969,0.01645,116.0145,227.981,-3.00614
11743,3.99927,209.246,3.80558,195.017,0.01951,116.0145,113.967,-2.17887
11800,3.99908,218.33,3.49464,187.345,0.01865,116.0145,0,-1.28986
11857,3.99936,207.288,3.83414,216.903,0.01768,118.015,285.988,-3.43926
11914,3.99895,192.651,4.49539,210.124,0.02139,118.015,171.974,-2.59987
11971,3.99916,204.122,3.99533,201.39,0.01984,118.015,57.95962,-1.76446
12028,3.99933,192.725,4.48171,213.801,0.02096,120.015,343.995,-3.91899
12085,3.99913,205.778,3.92878,200.773,0.01957,120.015,229.981,-3.05833
12142,3.99933,204.426,3.95587,213.096,0.01856,120.015,115.967,-2.23965
12199,3.99916,204.293,3.9989,197.183,0.02028,120.015,1.95263,-1.3436
12256,3.99911,204.45,4.00329,193.025,0.02074,122.015,287.988,-3.5075
12313,3.99919,211.7349,3.68935,205.261,0.01797,122.015,173.974,-2.62409
12370,3.99898,207.8734,3.87855,187.393,0.0207,122.015,59.95988,-1.79985
12427,3.99914,207.574,3.8587,200.0642,0.01929,124.0155,345.996,-3.94711
12484,3.99916,209.273,3.80402,195.194,0.01949,124.0155,231.981,-3.08217
12541,3.99911,195.138,4.35014,219.16,0.01985,124.0155,117.967,-2.30636
12598,3.99922,196.546,4.3125,208.1622,0.02072,124.0155,3.95288,-1.37272
12655,3.99902,207.296,3.915,182.694,0.02143,126.016,289.989,-3.55363
12712,3.99916,203.0652,4.04523,199.237,0.0203,126.016,175.974,-2.6909
12769,3.9993,198.541,4.22366,207.0218,0.0204,126.016,61.96013,-1.844
12826,3.99941,205.616,3.91438,210.038,0.01864,128.016,347.996,-4.00528
12883,3.99932,212.306,3.67113,204.022,0.01799,128.016,233.982,-3.1225
12940,3.99933,197.745,4.20459,230.455,0.01824,128.016,119.967,-2.34345
12997,3.99894,203.237,4.03895,198.748,0.02032,128.016,5.95312,-1.42116
13054,3.99927,199.499,4.20265,198.8212,0.02114,130.016,291.989,-3.60262
13111,3.9992,193.333,4.44325,216.8373,0.02049,130.016,177.975,-2.76202
13168,3.99925,195.4872,4.37919,202.42,0.02163,130.016,63.96038,-1.90523
13225,3.99942,200.935,4.09074,218.363,0.01873,132.0165,349.996,-4.06727
13282,3.99938,209.652,3.79034,194.906,0.01945,132.0165,235.982,-3.17028
13339,3.99944,198.425,4.21499,212.527,0.01983,132.0165,121.968,-2.37519
13396,3.99883,204.668,3.95571,208.4415,0.01898,132.0165,7.95338,-1.47279
13453,3.99914,196.019,4.35309,202.579,0.02149,134.017,293.989,-3.66003
13510,3.99899,205.699,3.93611,199.017,0.01978,134.017,179.975,-2.80597
13567,3.99926,193.942,4.42961,210.931,0.021,134.017,65.96063,-1.96797
13624,3.99929,202.422,4.02719,218.488,0.01843,136.017,351.996,-4.12226
13681,3.99889,209.198,3.78745,203.598,0.0186,136.017,237.982,-3.21242
13738,3.99892,201.189,4.13729,195.138,0.0212,136.017,123.968,-2.41679
13795,3.99894,211.205,3.73686,192.419,0.01942,136.017,9.95363,-1.52148
13852,3.9991,201.803,4.06107,214.842,0.0189,138.017,295.989,-3.69538
13909,3.99912,199.801,4.19721,195.907,0.02142,138.017,181.975,-2.87369
13966,3.99929,207.612,3.83139,211.959,0.01808,138.017,67.96088,-2.04101
14023,3.99937,203.043,4.00948,214.7,0.01867,140.0175,353.997,-4.17261
14080,3.99897,206.318,3.88511,210.385,0.01847,140.0175,239.982,-3.26719
14137,3.99897,197.166,4.29169,205.094,0.02093,140.0175,125.968,-2.4615
14194,3.9992,204.4771,4.01789,187.474,0.02143,140.0175,11.95388,-1.57757
14251,3.99895,201.447,4.11139,200.464,0.02051,142.018,297.99,-3.74755
14308,3.99924,195.825,4.34989,206.966,0.02102,142.018,183.975,-2.90893
14365,3.99962,198.944,4.16969,222.037,0.01878,142.018,69.96113,-2.12889
14422,3.99946,199.9256,4.12299,223.626,0.01844,144.018,355.997,-4.22075
14479,3.99907,207.9887,3.87626,186.578,0.02078,144.018,241.983,-3.31835
14536,3.99915,196.576,4.3457,196.257,0.02214,144.018,127.968,-2.51032
14593,3.99923,203.928,4.01021,198.742,0.02018,144.018,13.95413,-1.63852
14650,3.99901,206.693,3.91399,191.889,0.0204,146.018,299.99,-3.79484
14707,3.99934,190.527,4.57247,221.165,0.02067,146.018,185.976,-2.93866
14764,3.99934,211.505,3.69305,207.705,0.01778,146.018,71.96137,-2.17921
14821,3.99926,219.5849,3.42667,200.626,0.01708,148.0185,357.997,-4.24732
14878,3.99909,214.429,3.62264,190.786,0.01899,148.0185,243.983,-3.36778
14935,3.99921,176.741,5.532,187.881,0.02944,148.0185,129.969,-2.5455
14992,3.99909,205.031,3.96781,197.332,0.02011,148.0185,15.95438,-1.70042
15049,3.99905,198.576,4.21176,210.905,0.01997,150.019,301.99,-3.8613
15106,3.99937,201.066,4.05483,233.168,0.01739,150.019,187.976,-2.97371
15163,3.99971,208.019,3.81187,214.054,0.01781,150.019,73.96163,-2.22686
15220,3.99877,218.106,3.45411,212.587,0.01625,152.019,359.997,-4.29575
15277,3.99899,206.112,3.92819,195.485,0.02009,152.019,245.983,-3.42516
15334,3.99917,202.044,4.06905,207.075,0.01965,152.019,131.969,-2.59959
15391,3.99956,201.421,4.08989,209.708,0.0195,152.019,17.95463,-1.73895
15448,3.9993,204.242,4.01644,191.512,0.02097,154.019,303.99,-3.91693
15505,3.99936,199.726,4.12731,225.633,0.01829,154.019,189.976,-3.00808
15562,3.9993,204.125,3.95333,220.167,0.01796,154.019,75.96188,-2.27898
15619,3.99924,203.072,4.02405,207.706,0.01937,156.0195,361.998,-4.35952
15676,3.99906,213.928,3.65976,182.817,0.02002,156.0195,247.983,-3.46646
15733,3.99888,207.395,3.85772,203.434,0.01896,156.0195,133.969,-2.62845
15790,3.99897,196.635,4.30467,209.419,0.02056,156.0195,19.95487,-1.80342
15847,3.99926,203.223,4.01342,209.556,0.01915,158.02,305.991,-3.96134
15904,3.9992,200.751,4.20655,179.533,0.02343,158.02,191.976,-3.07535
15961,3.99944,200.049,4.14,213.644,0.01938,158.02,77.96213,-2.32252
16018,3.99883,199.422,4.17204,211.536,0.01972,160.02,363.998,-4.40233
16075,3.99902,189.352,4.70209,199.226,0.0236,160.02,249.984,-3.51491
16132,3.9993,200.304,4.1496,205.156,0.02023,160.02,135.969,-2.68722
16189,3.99899,205.322,3.93993,203.796,0.01933,160.02,21.95513,-1.81893
16246,3.99921,199.609,4.20865,195.007,0.02158,162.02,307.991,-3.9972
16303,3.99926,212.466,3.65171,211.006,0.01731,162.02,193.977,-3.09612
16360,3.99946,204.837,3.9247,220.166,0.01783,162.02,79.96237,-2.35633
16417,3.99923,209.269,3.78179,205.142,0.01843,164.0205,365.998,-4.42511
16474,3.99917,190.955,4.60648,202.338,0.02277,164.0205,251.984,-3.56388
16531,3.99891,173.499,5.81332,180.955,0.03213,164.0205,137.97,-2.72189
16588,3.99921,226.539,3.28165,164.947,0.0199,164.0205,23.95538,-1.8485
16645,3.99955,200.372,4.09498,227.863,0.01797,166.021,309.991,-4.0343
16702,3.99917,198.033,4.20605,223.697,0.0188,166.021,195.977,-3.14538
16759,3.99926,203.701,3.9963,208.331,0.01918,166.021,81.96263,-2.40613
16816,3.99917,204.474,3.95052,214.596,0.01841,168.021,367.998,-4.47616
16873,3.99924,189.246,4.7208,195.7573,0.02412,168.021,253.984,-3.61536
16930,3.99918,203.159,4.04646,197.26,0.02051,168.021,139.97,-2.77583
16987,3.99911,197.616,4.27027,205.337,0.0208,168.021,25.95563,-1.9107
17044,3.99913,209.567,3.76044,209.955,0.01791,170.021,311.991,-4.0634
17101,3.99923,200.311,4.08743,232.831,0.01756,170.021,197.977,-3.18926
17158,3.99946,204.981,3.95884,201.937,0.0196,170.021,83.96288,-2.44366
17215,3.99915,216.563,3.56594,182.7489,0.01951,172.0215,369.999,-4.48935
17272,3.99929,190.113,4.6665,197.857,0.02359,172.0215,255.984,-3.66323
17329,3.99911,198.492,4.25034,198.125,0.02145,172.0215,141.97,-2.82682
17386,3.99887,200.299,4.1634,199.864,0.02083,172.0215,27.95587,-1.95469
17443,3.99919,203.017,3.9958,221.6,0.01803,174.022,313.992,-4.11794
17500,3.99938,198.726,4.16056,230.718,0.01803,174.022,199.977,-3.26778
17557,3.99949,203.689,3.97063,220.525,0.01801,174.022,85.96313,-2.4868
17614,3.99903,203.21,4.06485,189.799,0.02142,176.022,371.999,-4.54689
17671,3.99902,211.981,3.74075,179.4669,0.02084,176.022,257.985,-3.70027
17728,3.99898,206.014,3.94145,191.923,0.02054,176.022,143.97,-2.87159
17785,3.99917,213.565,3.68046,179.986,0.02045,176.022,29.95613,-1.99152
17842,3.99937,200.913,4.10144,214.017,0.01916,178.022,315.992,-4.16843
17899,3.99935,199.903,4.12083,225.06,0.01831,178.022,201.978,-3.32952
17956,3.99936,221.131,3.36956,204.861,0.01645,178.022,87.96337,-2.51142
18013,3.99898,202.9,4.01396,215.178,0.01865,180.0225,373.999,-4.60178
18070,3.99928,193.091,4.49033,204.583,0.02195,180.0225,259.985,-3.76704
18127,3.99891,209.176,3.81153,193.51,0.0197,180.0225,145.971,-2.91932
18184,3.99886,202.355,4.08042,197.2859,0.02068,180.0225,31.95638,-2.05647
18241,3.99931,200.811,4.08859,221.739,0.01844,182.023,317.992,-4.22147
18298,3.99935,199.446,4.13292,228.81,0.01806,182.023,203.978,-3.39267
18355,3.99938,204.237,3.93582,226.86,0.01735,182.023,89.96363,-2.55789
18412,3.9994,204.348,3.93695,223.946,0.01758,184.023,375.999,-4.65043
18469,3.99911,197.227,4.30586,199.215,0.02161,184.023,261.985,-3.81663
18526,3.99896,200.806,4.115,210.036,0.01959,184.023,147.971,-2.96557
18583,3.99875,211.741,3.69137,203.928,0.0181,184.023,33.95663,-2.07189
18640,3.99934,209.451,3.77874,203.393,0.01858,186.023,319.992,-4.25059
18697,3.99933,200.022,4.11341,226.117,0.01819,186.023,205.978,-3.43765
18754,3.99921,202.848,3.99304,226.489,0.01763,186.023,91.96388,-2.5904
18811,3.99922,205.948,3.87784,221.354,0.01752,188.0235,378,-4.70124
18868,3.99923,192.349,4.54929,197.907,0.02299,188.0235,263.985,-3.86993
18925,3.99906,201.0107,4.13255,199.73,0.02069,188.0235,149.971,-3.005
18982,3.9991,201.1558,4.09116,213.795,0.01914,188.0235,35.95687,-2.13614
19039,3.99936,200.003,4.11117,227.616,0.01806,190.024,321.993,-4.3035
19096,3.99931,198.048,4.19956,226.442,0.01855,190.024,207.978,-3.47429
19153,3.99961,200.161,4.11019,224.939,0.01827,190.024,93.96413,-2.62606
19210,3.99927,213.6528,3.62761,201.518,0.018,192.024,380,-4.73682
19267,3.99914,202.769,4.09803,185.158,0.02213,192.024,265.986,-3.9214
19324,3.999,200.777,4.13099,204.167,0.02023,192.024,151.971,-3.04869
19381,3.99905,198.565,4.23241,203.251,0.02082,192.024,37.95713,-2.18311
19438,3.99899,204.544,3.9847,198.565,0.02007,194.024,323.993,-4.34978
19495,3.99938,210.731,3.70563,216.064,0.01715,194.024,209.979,-3.49495
19552,3.99946,202.095,4.03307,222.307,0.01814,194.024,95.96438,-2.67796
19609,3.99918,199.356,4.12274,235.829,0.01748,196.0245,381.9525,-4.78556
19666,3.99903,202.727,3.99678,227.046,0.0176,196.0245,267.986,-3.96555
19723,3.9991,200.17,4.14749,208.222,0.01992,196.0245,153.972,-3.09599
19780,3.99858,208.297,3.83319,198.589,0.0193,196.0245,39.95738,-2.22952
19837,3.99877,225.4095,3.2722,184.774,0.01771,198.025,325.993,-4.38351
19894,3.99915,200.061,4.14594,210.822,0.01967,198.025,211.979,-3.5387
19951,3.9995,201.8596,4.05613,216.19,0.01876,198.025,97.96463,-2.73198
20008,3.99868,203.097,4.01767,209.712,0.01916,200.025,383.953,-4.81919
20065,3.99886,201.689,4.05424,220.063,0.01842,200.025,269.986,-4.00992
20122,3.99899,213.1551,3.67115,189.682,0.01935,200.025,155.972,-3.12994
20179,3.99875,194.752,4.42996,197.353,0.02245,200.025,41.95763,-2.27614
20236,3.99861,214.255,3.62043,194.365,0.01863,202.025,327.993,-4.45866
20293,3.99897,198.112,4.24423,206.489,0.02055,202.025,213.979,-3.57865
20350,3.99913,197.375,4.24813,218.339,0.01946,202.025,99.96488,-2.80011
20407,3.99891,202.563,4.04217,208.962,0.01934,204.0255,385.953,-4.86115
20464,3.999,205.622,3.89495,219.06,0.01778,204.0255,271.986,-4.0567
20521,3.99909,218.732,3.46858,193.342,0.01794,204.0255,157.972,-3.17268
20578,3.99902,202.711,4.0569,200.481,0.02024,204.0255,43.95788,-2.32618
20635,3.99906,208.399,3.83417,196.724,0.01949,206.026,329.994,-4.50082
20692,3.99891,211.531,3.75718,179.649,0.02091,206.026,215.979,-3.62185
20749,3.99929,203.001,4.00421,217.908,0.01838,206.026,101.965,-2.83757
20806,3.9988,223.2122,3.34362,183.198,0.01825,208.026,387.953,-4.8893
20863,3.99917,199.018,4.17235,219.169,0.01904,208.026,273.987,-4.10966
20920,3.99921,205.182,3.98532,188.5298,0.02114,208.026,159.972,-3.22495
20977,3.99914,206.2724,3.939,188.9898,0.02084,208.026,45.95813,-2.37877
21034,3.99913,212.561,3.68412,193.5394,0.01904,210.026,331.994,-4.53888
21091,3.99902,210.846,3.72133,205.566,0.0181,210.026,217.98,-3.67475
21148,3.99917,200.941,4.08948,218.692,0.0187,210.026,103.965,-2.87333
21205,3.99901,208.411,3.81574,204.572,0.01865,212.0265,389.9535,-4.96004
21262,3.99926,202.656,4.00346,225.2722,0.01777,212.0265,275.987,-4.14981
21319,3.9991,212.067,3.72732,183.304,0.02033,212.0265,161.973,-3.26175
21376,3.99904,202.38,4.10363,188.829,0.02173,212.0265,47.95838,-2.41762
21433,3.99933,202.585,4.0144,221.3629,0.01813,214.027,333.994,-4.58179
21490,3.99903,194.234,4.45409,197.91,0.02251,214.027,219.98,-3.71587
21547,3.99912,201.003,4.09037,217.058,0.01884,214.027,105.966,-2.90618
21604,3.99909,202.84,4.03582,206.779,0.01952,216.027,391.954,-5.02075
21661,3.99922,198.3954,4.18464,226.124,0.01851,216.027,277.987,-4.19601
21718,3.999,214.241,3.65623,179.714,0.02034,216.027,163.973,-3.31111
21775,3.99903,199.552,4.16462,212.312,0.01962,216.027,49.95862,-2.46515
21832,3.99942,195.715,4.34112,212.184,0.02046,218.027,335.994,-4.63099
21889,3.99882,220.854,3.41662,184.51,0.01852,218.027,221.98,-3.74238
21946,3.99909,206.668,3.89058,201.766,0.01928,218.027,107.966,-2.92151
22003,3.99907,206.339,3.89611,205.073,0.019,220.0275,393.954,-5.07071
22060,3.999,202.599,4.01657,219.842,0.01827,220.0275,279.987,-4.24498
22117,3.99889,201.5889,4.12637,192.803,0.0214,220.0275,165.973,-3.36182
22174,3.99904,202.86,4.05297,199.563,0.02031,220.0275,51.95888,-2.51255
22231,3.99914,197.159,4.30948,199.0877,0.02165,222.028,337.995,-4.6796
22288,3.99915,200.654,4.15628,196.884,0.02111,222.028,223.98,-3.80354
22345,3.99888,212.848,3.67336,193.545,0.01898,222.028,109.966,-2.94123
22402,3.99865,198.185,4.22388,212.9277,0.01984,224.028,395.954,-5.1259
22459,3.99903,205.293,3.95568,197.834,0.01999,224.028,281.988,-4.28437
22516,3.99904,198.135,4.26726,197.932,0.02156,224.028,167.973,-3.41258
22573,3.99901,192.415,4.5235,204.747,0.02209,224.028,53.95913,-2.56834
22630,3.99905,186.634,4.80355,213.1863,0.02253,226.028,339.995,-4.73363
22687,3.99908,198.776,4.20369,210.551,0.01997,226.028,225.981,-3.84581
22744,3.99897,205.564,3.91213,211.83,0.01847,226.028,111.966,-2.99045
22801,3.99933,210.063,3.751,205.5481,0.01825,228.0285,397.9545,-5.17024
22858,3.99899,213.488,3.6799,181.204,0.02031,228.0285,283.988,-4.31713
22915,3.99907,199.095,4.20831,203.27,0.0207,228.0285,169.974,-3.45302
22972,3.9989,208.373,3.82853,199.472,0.01919,228.0285,55.95938,-2.62685
23029,3.99914,192.772,4.52458,198.807,0.02276,230.029,341.995,-4.77142
23086,3.99902,215.088,3.61311,184.754,0.01956,230.029,227.981,-3.87888
23143,3.99906,204.582,3.98211,199,0.02001,230.029,113.967,-3.03622
23200,3.99912,199.231,4.21718,197.925,0.02131,230.029,0,-2.16303
23257,3.99911,206.529,3.92186,191.467,0.02048,232.029,285.988,-4.35703
23314,3.9991,200.34,4.18722,191.099,0.02191,232.029,171.974,-3.49357
23371,3.999,203.073,4.05203,196.466,0.02062,232.029,57.95962,-2.68998
23428,3.99914,188.11,4.7428,206.995,0.02291,234.029,343.995,-4.82996
23485,3.9992,206.413,3.88028,211.013,0.01839,234.029,229.981,-3.93318
23542,3.99917,200.815,4.1299,204.032,0.02024,234.029,115.967,-3.08681
23599,3.99906,197.52,4.26731,208.06,0.02051,234.029,1.95263,-2.20399
23656,3.99898,199.699,4.21568,191.237,0.02204,236.0295,287.988,-4.3985
23713,3.99912,204.6279,3.98962,195.369,0.02042,236.0295,173.974,-3.53726
23770,3.99926,214.647,3.60363,196.023,0.01838,236.0295,59.95988,-2.72218
23827,3.99922,196.806,4.34539,192.919,0.02252,238.03,345.996,-4.86622
23884,3.99917,201.495,4.05315,224.684,0.01804,238.03,231.981,-3.9831
23941,3.99899,208.745,3.80195,204.978,0.01855,238.03,117.967,-3.13013
23998,3.99912,197.406,4.25123,216.4727,0.01964,238.03,3.95288,-2.25271
24055,3.99916,201.803,4.07474,208.973,0.0195,240.03,289.989,-4.43464
24112,3.99914,201.462,4.07473,215.2539,0.01893,240.03,175.974,-3.57101
24169,3.99925,202.278,4.04413,213.508,0.01894,240.03,61.96013,-2.78862
24226,3.99921,194.082,4.42136,211.425,0.02091,242.03,347.996,-4.9051
24283,3.9991,201.348,4.11475,200.885,0.02048,242.03,233.982,-4.03165
24340,3.9993,192.265,4.51059,211.7198,0.0213,242.03,119.967,-3.19861
24397,3.99902,198.5333,4.25194,196.889,0.0216,242.03,5.95312,-2.2995
24454,3.99912,194.417,4.39951,213.417,0.02061,244.0305,291.989,-4.47671
24511,3.9989,200.659,4.1018,218.461,0.01878,244.0305,177.975,-3.62551
24568,3.99945,201.253,4.08694,213.987,0.0191,244.0305,63.96038,-2.83359
24625,3.99903,199.389,4.22265,193.59,0.02181,246.031,349.996,-4.94885
24682,3.99917,196.46,4.3238,205.5171,0.02104,246.031,235.982,-4.07803
24739,3.99934,204.656,3.93588,218.178,0.01804,246.031,121.968,-3.24602
24796,3.99935,195.441,4.35402,212.194,0.02052,246.031,7.95338,-2.35307
24853,3.99902,196.956,4.30883,202.511,0.02128,248.031,293.989,-4.5271
24910,3.99909,204.927,3.9285,216.303,0.01816,248.031,179.975,-3.66533
24967,3.99935,200.263,4.10374,225.785,0.01818,248.031,65.96063,-2.8803
25024,3.99915,204.982,3.94573,207.3566,0.01903,250.031,351.996,-4.97542
25081,3.99915,193.364,4.45849,210.706,0.02116,250.031,237.982,-4.11756
25138,3.99927,199.005,4.16488,222.813,0.01869,250.031,123.968,-3.3064
25195,3.99917,140.093,9.01063,235.2165,0.03831,250.031,9.95363,-2.40196
25252,3.99914,207.393,3.85686,203.977,0.01891,252.0315,295.989,-4.55007
25309,3.99928,202.145,4.02185,226.736,0.01774,252.0315,181.975,-3.71414
25366,3.99908,206.534,3.89288,203.089,0.01917,252.0315,67.96088,-2.90928
25423,3.99904,214.817,3.60469,192.627,0.01871,254.032,353.997,-5.00202
25480,3.99928,199.718,4.1266,226.094,0.01825,254.032,239.982,-4.16164
25537,3.99906,190.544,4.6213,204.328,0.02262,254.032,125.968,-3.35479
25594,3.99925,199.32,4.15751,219.853,0.01891,254.032,11.95388,-2.44806
25651,3.99875,207.36,3.87819,195.323,0.01986,256.032,297.99,-4.61974
25708,3.99931,197.054,4.29929,204.387,0.02104,256.032,183.975,-3.77211
25765,3.99881,205.077,3.97722,192.884,0.02062,256.032,69.96113,-2.96033
25822,3.99892,209.032,3.82964,188.566,0.02031,258.032,355.997,-5.06911
25879,3.99898,213.187,3.69936,178.07,0.02077,258.032,241.983,-4.19748
25936,3.99913,195.913,4.30604,222.338,0.01937,258.032,127.968,-3.39319
25993,3.99913,201.5217,4.08083,211.488,0.0193,258.032,13.95413,-2.49967
26050,3.99891,206.715,3.88452,203.488,0.01909,260.0325,299.99,-4.66861
26107,3.99921,216.102,3.564,190.667,0.01869,260.0325,185.976,-3.80968
26164,3.99914,199.21,4.19509,206.324,0.02033,260.0325,71.96137,-2.98613
26221,3.99913,208.757,3.81654,198.32,0.01924,262.033,357.997,-5.12529
26278,3.99912,210.421,3.75007,199.602,0.01879,262.033,243.983,-4.25172
26335,3.99928,204.619,3.96593,205.102,0.01934,262.033,129.969,-3.43904
26392,3.99905,199.533,4.18464,204.744,0.02044,262.033,15.95438,-2.56756
26449,3.99905,195.379,4.39809,197.87,0.02223,264.033,301.99,-4.71956
26506,3.99924,212.231,3.67377,204.029,0.01801,264.033,187.976,-3.86259
26563,3.99909,197.7453,4.23884,215.186,0.0197,264.033,73.96163,-3.02454
26620,3.99938,215.997,3.5455,201.502,0.0176,266.033,359.997,-5.1809
26677,3.99924,195.23,4.36435,212.035,0.02058,266.033,245.983,-4.3198
26734,3.99917,197.28,4.27852,208.0692,0.02056,266.033,131.969,-3.49311
26791,3.99885,200.932,4.13914,198.487,0.02085,266.033,17.95463,-2.61245
26848,3.99906,202.411,4.06277,203.2291,0.01999,268.0335,303.99,-4.75805
26905,3.99914,197.593,4.22725,223.086,0.01895,268.0335,189.976,-3.9367
26962,3.99906,195.703,4.34262,211.668,0.02052,268.0335,75.96188,-3.08046
27019,3.99924,201.918,4.05341,216.164,0.01875,270.034,361.998,-5.26506
27076,3.99908,200.63,4.14153,202.639,0.02044,270.034,247.983,-4.37217
27133,3.99894,195.137,4.37938,208.041,0.02105,270.034,133.969,-3.54257
27190,3.99884,197.52,4.23365,221.561,0.01911,270.034,19.95487,-2.67141
27247,3.99935,200.0493,4.15274,208.3666,0.01993,272.034,305.991,-4.8146
27304,3.99927,197.5895,4.21029,231.031,0.01822,272.034,191.976,-3.9877
27361,3.99926,202.722,3.99924,226.028,0.01769,272.034,77.96213,-3.11952
27418,3.9991,222.369,3.36454,186.1684,0.01807,274.034,363.998,-5.2921
27475,3.99896,202.165,4.07274,203.397,0.02002,274.034,249.984,-4.43265
27532,3.99906,201.644,4.10965,197.971,0.02076,274.034,135.969,-3.59291
27589,3.99888,206.332,3.90403,201.663,0.01936,274.034,21.95513,-2.72367
27646,3.99912,203.7925,4.03483,191.647,0.02105,276.0345,307.991,-4.88596
27703,3.99931,201.456,4.0704,217.398,0.01872,276.0345,193.977,-4.02751
27760,3.99895,197.245,4.28882,204.7773,0.02094,276.0345,79.96237,-3.18655
27817,3.99912,195.347,4.34779,216.17,0.02011,278.035,365.998,-5.35479
27874,3.99916,163.966,6.30363,229.788,0.02743,278.035,251.984,-4.49138
27931,3.99918,208.496,3.84386,191.312,0.02009,278.035,137.97,-3.64268
27988,3.99875,202.123,4.08621,198.819,0.02055,278.035,23.95538,-2.77813
28045,3.99893,208.917,3.83006,190.147,0.02014,280.035,309.991,-4.93687
28102,3.99938,199.876,4.14279,215.67,0.01921,280.035,195.977,-4.07505
28159,3.99889,200.501,4.13325,207.994,0.01987,280.035,81.96263,-3.24365
28216,3.99915,203.494,3.96597,226.748,0.01749,282.035,367.998,-5.39734
28273,3.99925,195.32,4.37349,207.1491,0.02111,282.035,253.984,-4.53921
28330,3.99902,208.357,3.8584,187.76,0.02055,282.035,139.97,-3.69907
28387,3.99892,200.8711,4.14383,197.801,0.02095,282.035,25.95563,-2.83249
28444,3.99921,206.901,3.89469,196.265,0.01984,284.0355,311.991,-4.98371
28501,3.99929,199.873,4.16801,205.418,0.02029,284.0355,197.977,-4.13173
28558,3.99902,202.721,4.02773,212.372,0.01897,284.0355,83.96288,-3.30801
28615,3.99911,189.335,4.63535,220.654,0.02101,286.036,369.999,-5.45345
28672,3.99903,196.315,4.32892,206.073,0.02101,286.036,255.984,-4.59435
28729,3.99898,205.204,3.94386,204.174,0.01932,286.036,141.97,-3.75914
28786,3.99908,200.64,4.14433,201.426,0.02057,286.036,27.95587,-2.88957
28843,3.99887,208.2,3.82874,202.318,0.01892,288.036,313.992,-5.0383
28900,3.99909,195.339,4.33596,221.061,0.01961,288.036,199.977,-4.2117
28957,3.99921,222.29,3.36297,188.241,0.01787,288.036,85.96313,-3.34746
29014,3.99896,204.09,3.99462,202.123,0.01976,290.036,371.999,-5.49465
29071,3.99928,197.893,4.26216,203.721,0.02092,290.036,257.985,-4.64544
29128,3.99906,214.056,3.64727,185.986,0.01961,290.036,143.97,-3.80172
29185,3.99911,206.025,3.95637,186.402,0.02122,290.036,29.95613,-2.93995
29242,3.99907,200.911,4.15307,193.984,0.02141,292.0365,315.992,-5.08516
29299,3.99934,202.197,4.03589,218.866,0.01844,292.0365,201.978,-4.27484
29356,3.99944,202.316,4.02859,219.988,0.01831,292.0365,87.96337,-3.43373
29413,3.99902,220.2868,3.42949,187.29,0.01831,294.037,373.999,-5.53562
29470,3.99905,199.873,4.19039,197.113,0.02126,294.037,259.985,-4.69666
29527,3.99923,201.2856,4.07111,220.379,0.01847,294.037,145.971,-3.86295
29584,3.99908,202.868,4.07579,191.119,0.02133,294.037,31.95638,-3.0006
29641,3.99895,201.109,4.10926,206.9965,0.01985,296.037,317.992,-5.1312
29698,3.99923,197.712,4.21389,226.723,0.01859,296.037,203.978,-4.34431
29755,3.99938,210.564,3.72284,210.228,0.01771,296.037,89.96363,-3.48185
29812,3.99901,207.613,3.854,201.368,0.01914,298.037,375.999,-5.59951
29869,3.99919,196.334,4.33674,203.07,0.02136,298.037,261.985,-4.7564
29926,3.99943,194.392,4.36459,228.069,0.01914,298.037,147.971,-3.91961
29983,3.9991,221.679,3.41322,174.262,0.01959,298.037,33.95663,-3.04953
30040,3.9988,208.1054,3.86186,190.1307,0.02031,300.0375,319.992,-5.19358
30097,3.99937,198.474,4.18371,225.025,0.01859,300.0375,205.978,-4.4034
30154,3.99927,200.909,4.07515,226.165,0.01802,300.0375,91.96388,-3.55038
30211,3.99928,191.829,4.5463,207.133,0.02195,302.038,378,-5.64578
30268,3.99928,204.477,3.99457,195.943,0.02039,302.038,263.985,-4.80947
30325,3.99939,199.825,4.12316,225.581,0.01828,302.038,149.971,-3.9641
30382,3.99901,199.657,4.19263,199.733,0.02099,302.038,35.95687,-3.11715
30439,3.99894,213.796,3.66776,181.509,0.02021,304.038,321.993,-5.25044
30496,3.99914,199.308,4.13459,230.82,0.01791,304.038,207.978,-4.45892
30553,3.99906,193.065,4.46552,213.427,0.02092,304.038,93.96413,-3.61883
30610,3.99926,202.352,4.0653,203.321,0.01999,306.038,380,-5.69538
30667,3.99911,207.542,3.87793,192.702,0.02012,306.038,265.986,-4.86712
30724,3.99926,198.206,4.2004,222.813,0.01885,306.038,151.971,-4.02441
30781,3.9992,200.563,4.15143,200.111,0.02075,306.038,37.95713,-3.17812
30838,3.99901,209.458,3.82668,183.478,0.02086,308.0385,323.993,-5.30971
30895,3.99916,203.6,3.99334,211.421,0.01889,308.0385,209.979,-4.51262
30952,3.99917,191.054,4.58426,207.671,0.02207,308.0385,95.96438,-3.66754
31009,3.99899,213.515,3.63,202.635,0.01791,310.039,381.9525,-5.73152
31066,3.99877,217.293,3.54847,179.311,0.01979,310.039,267.986,-4.91808
31123,3.99914,196.215,4.30487,217.017,0.01984,310.039,153.972,-4.08445
31180,3.99877,209.15,3.78639,204.893,0.01848,310.039,39.95738,-3.22537
31237,3.99927,203.537,4.02493,199.429,0.02018,312.039,325.993,-5.36823
31294,3.99915,217.2845,3.52172,191.311,0.01841,312.039,211.979,-4.57183
31351,3.99929,201.001,4.10111,212.479,0.0193,312.039,97.96463,-3.70166
31408,3.99902,204.384,3.99186,198.369,0.02012,314.039,383.953,-5.7912
31465,3.99898,204.723,3.96607,203.101,0.01953,314.039,269.986,-4.97145
31522,3.99902,201.477,4.09147,207.795,0.01969,314.039,155.972,-4.13395
31579,3.99899,200.82,4.16251,192.12,0.02167,314.039,41.95763,-3.29183
31636,3.99898,203.714,4.04388,189.581,0.02133,316.0395,327.993,-5.42589
31693,3.9988,196.947,4.30276,204.7,0.02102,316.0395,213.979,-4.62514
31750,3.9992,194.588,4.40349,209.012,0.02107,316.0395,99.96488,-3.76218
31807,3.99922,194.783,4.41123,203.092,0.02172,318.04,385.953,-5.86447
31864,3.99892,207.049,3.88621,197.165,0.01971,318.04,271.986,-5.038
31921,3.99922,196.986,4.28318,211.486,0.02025,318.04,157.972,-4.18664
31978,3.99931,200.979,4.16615,188.718,0.02208,318.04,43.95788,-3.35168
32035,3.99903,198.027,4.26639,199.94,0.02134,320.04,329.994,-5.47997
32092,3.99928,197.729,4.24187,214.3461,0.01979,320.04,215.979,-4.67425
32149,3.99886,196.156,4.35437,199.837,0.02179,320.04,101.965,-3.79618
32206,3.99905,199.649,4.16516,210.356,0.0198,322.04,387.953,-5.92718
32263,3.99897,195.841,4.33702,211.279,0.02053,322.04,273.987,-5.10406
32320,3.99932,199.376,4.1808,209.083,0.02,322.04,159.972,-4.24365
32377,3.99892,202.871,4.05636,198.051,0.02048,322.04,45.95813,-3.41187
32434,3.99924,199.511,4.15238,218.404,0.01901,324.0405,331.994,-5.55472
32491,3.99891,208.13,3.83535,200.636,0.01912,324.0405,217.98,-4.71639
32548,3.99896,197.204,4.25482,218.733,0.01945,324.0405,103.965,-3.85566
32605,3.99921,199.923,4.1442,214.1042,0.01936,326.041,389.9535,-5.98416
32662,3.99937,188.742,4.78788,185.964,0.02575,326.041,275.987,-5.13489
32719,3.99922,200.325,4.10562,223.532,0.01837,326.041,161.973,-4.2849
32776,3.99887,202.981,4.03893,202.969,0.0199,326.041,47.95838,-3.46102
32833,3.99909,199.842,4.20109,193.9405,0.02166,328.041,333.994,-5.61018
32890,3.99903,208.557,3.82683,197.204,0.01941,328.041,219.98,-4.75616
32947,3.999,205.407,3.9512,197.748,0.01998,328.041,105.966,-3.90743
33004,3.9994,197.263,4.21205,237.452,0.01774,330.041,391.954,-6.06568
33061,3.9994,200.803,4.16538,191.579,0.02174,330.041,277.987,-5.23007
33118,3.99923,201.868,4.07656,207.114,0.01968,330.041,163.973,-4.36418
33175,3.99905,204.175,4.01432,193.193,0.02078,330.041,49.95862,-3.52229
33232,3.99902,192.743,4.50548,205.223,0.02195,332.0415,335.994,-5.69326
33289,3.99896,205.251,3.95594,198.384,0.01994,332.0415,221.98,-4.82294
33346,3.99903,204.631,3.98859,195.669,0.02038,332.0415,107.966,-3.97207
33403,3.99941,202.055,4.03287,223.19,0.01807,334.042,393.954,-6.13802
33460,3.99923,197.441,4.32017,191.398,0.02257,334.042,279.987,-5.28652
33517,3.99904,208.892,3.79657,204.876,0.01853,334.042,165.973,-4.42392
33574,3.99912,197.712,4.26493,205.684,0.02074,334.042,51.95888,-3.58007
33631,3.99907,194.488,4.44713,196.199,0.02267,336.042,337.995,-5.74069
33688,3.99874,207.2128,3.87775,197.882,0.0196,336.042,223.98,-4.88111
33745,3.99912,198.607,4.2221,206.389,0.02046,336.042,109.966,-4.0288
33802,3.99939,197.888,4.2168,221.934,0.019,338.042,395.954,-6.20549
33859,3.99903,199.307,4.3113,169.639,0.02541,338.042,281.988,-5.33229
33916,3.99899,206.286,3.91991,195.97,0.02,338.042,167.973,-4.47614
33973,3.99904,208.2475,3.85557,190.494,0.02024,338.042,53.95913,-3.63123
34030,3.99874,196.556,4.35179,194.45,0.02238,340.0425,339.995,-5.79253
34087,3.99902,215.954,3.59583,179.272,0.02006,340.0425,225.981,-4.94182
34144,3.99919,203.691,4.03818,192.011,0.02103,340.0425,111.966,-4.09489
34201,3.99943,199.011,4.19742,209.017,0.02008,342.043,397.9545,-6.28091
34258,3.99933,195.02,4.37804,210.733,0.02078,342.043,283.988,-5.41947
34315,3.99934,193.783,4.4109,220.93,0.01997,342.043,169.974,-4.55359
34372,3.99913,199.0273,4.19101,211.134,0.01985,342.043,55.95938,-3.70044
34429,3.99893,193.882,4.44844,205.284,0.02167,344.043,341.995,-5.85034
34486,3.99906,206.878,3.88285,201.4824,0.01927,344.043,227.981,-5.01303
34543,3.99906,199.189,4.23165,193.638,0.02185,344.043,113.967,-4.15456
34600,3.99935,202.981,3.98702,226.855,0.01758,344.043,0,-3.29318
34657,3.9991,200.417,4.14657,204.311,0.0203,346.043,285.988,-5.47876
34714,3.99949,197.861,4.2078,226.589,0.01857,346.043,171.974,-4.62325
34771,3.9993,197.07,4.32358,195.888,0.02207,346.043,57.95962,-3.77301
34828,3.99902,197.9,4.27023,200.637,0.02128,348.0435,343.995,-5.92046
34885,3.99896,202.965,4.03913,203.205,0.01988,348.0435,229.981,-5.08173
34942,3.99924,204.283,3.96673,210.765,0.01882,348.0435,115.967,-4.20844
34999,3.999,207.073,3.88973,195.386,0.01991,348.0435,1.95263,-3.35757
35056,3.999,201.259,4.10282,207.007,0.01982,350.044,287.988,-5.54368
35113,3.99928,200.417,4.08904,229.728,0.0178,350.044,173.974,-4.70967
35170,3.99928,201.592,4.07912,211.005,0.01933,350.044,59.95988,-3.84349
35227,3.99915,198.002,4.24653,207.585,0.02046,352.044,345.996,-5.98388
35284,3.99899,217.019,3.5522,181.782,0.01954,352.044,231.981,-5.14332
35341,3.99922,201.031,4.10122,211.854,0.01936,352.044,117.967,-4.27576
35398,3.99879,201.578,4.10516,200.584,0.02047,352.044,3.95288,-3.42626
35455,3.99913,205.054,3.96896,196.528,0.0202,354.044,289.989,-5.59361
35512,3.99921,203.722,3.98019,215.161,0.0185,354.044,175.974,-4.77874
35569,3.99925,200.523,4.11144,216.962,0.01895,354.044,61.96013,-3.93343
35626,3.99914,191.959,4.52024,213.65,0.02116,356.0445,347.996,-6.03883
35683,3.99898,200.065,4.17432,199.734,0.0209,356.0445,233.982,-5.21321
35740,3.99903,190.222,4.6246,208.565,0.02217,356.0445,119.967,-4.3497
35797,3.99893,203.285,4.05011,193.834,0.02089,356.0445,5.95312,-3.47634
35854,3.99902,209.346,3.77517,206.775,0.01826,358.045,291.989,-5.6473
35911,3.99896,198.3145,4.20633,217.943,0.0193,358.045,177.975,-4.85557
35968,3.99937,199.829,4.12243,225.835,0.01825,358.045,63.96038,-4.01482
36025,3.99921,195.281,4.3653,210.773,0.02071,360.045,349.996,-6.10516
36082,3.99909,206.19,3.94838,186.815,0.02114,360.045,235.982,-5.26643
36139,3.9991,198.689,4.24436,197.078,0.02154,360.045,121.968,-4.42244
36196,3.99913,188.517,4.70776,210.967,0.02232,360.045,7.95338,-3.53969
36253,3.99923,200.385,4.10904,220.734,0.01862,362.045,293.989,-5.71548
36310,3.99873,183.849,4.99898,203.13,0.02461,362.045,179.975,-4.90998
36367,3.99909,211.32,3.71734,199.178,0.01866,362.045,65.96063,-4.08369
36424,3.99907,195.616,4.36472,205.171,0.02127,364.0455,351.996,-6.16492
36481,3.99928,198.352,4.17437,231.977,0.01799,364.0455,237.982,-5.34198
36538,3.99923,209.8511,3.7526,208.59,0.01799,364.0455,123.968,-4.4828
36595,3.99923,205.041,3.93674,210.354,0.01871,364.0455,9.95363,-3.60301
36652,3.99901,199.453,4.19115,203.635,0.02058,366.046,295.989,-5.77663
36709,3.9992,219.796,3.41194,205.041,0.01664,366.046,181.975,-4.9522
36766,3.99934,194.923,4.37279,214.426,0.02039,366.046,67.96088,-4.15314
36823,3.99917,206.678,3.92121,189.467,0.0207,368.046,353.997,-6.20339
36880,3.99919,214.466,3.58948,206.252,0.0174,368.046,239.982,-5.39287
36937,3.99906,211.3036,3.73548,191.495,0.01951,368.046,125.968,-4.52475
36994,3.99924,196.976,4.30864,202.357,0.02129,368.046,11.95388,-3.69254
37051,3.99898,203.509,4.04584,191.963,0.02108,370.046,297.99,-5.83366
37108,3.99889,195.961,4.35051,204.3124,0.02129,370.046,183.975,-5.04016
37165,3.99927,203.498,3.99734,211.587,0.01889,370.046,69.96113,-4.19866
37222,3.99884,213.655,3.67075,182.312,0.02013,372.0465,355.997,-6.26299
37279,3.99944,201.192,4.06626,224.705,0.0181,372.0465,241.983,-5.48949
37336,3.99919,211.849,3.71973,189.625,0.01962,372.0465,127.968,-4.60808
37393,3.99915,202.0327,4.08911,199.3653,0.02051,372.0465,13.95413,-3.76737
37450,3.99899,202.399,4.02763,218.575,0.01843,374.047,299.99,-5.8932
37507,3.99934,200.591,4.10748,217.4554,0.01889,374.047,185.976,-5.1002
37564,3.99914,200.59,4.08112,229.897,0.01775,374.047,71.96137,-4.25009
37621,3.9995,199.739,4.17769,204.105,0.02047,376.047,357.997,-6.3312
37678,3.99924,206.463,3.84395,228.828,0.0168,376.047,243.983,-5.55463
37735,3.99894,200.662,4.09857,219.902,0.01864,376.047,129.969,-4.69959
37792,3.99935,196.253,4.32402,209.057,0.02068,376.047,15.95438,-3.82347
37849,3.99905,192.038,4.53999,205.624,0.02208,378.047,301.99,-5.97434
37906,3.9994,201.481,4.06844,217.874,0.01867,378.047,187.976,-5.15687
37963,3.99911,202.37,4.04974,209.313,0.01935,378.047,73.96163,-4.29965
38020,3.99908,207.881,3.88421,185.259,0.02097,380.0475,359.997,-6.34321
38077,3.9993,201.8177,4.06493,212.974,0.01909,380.0475,245.983,-5.60603
38134,3.99907,197.152,4.25535,219.565,0.01938,380.0475,131.969,-4.77357
38191,3.99887,202.931,4.04546,201.234,0.0201,380.0475,17.95463,-3.89666
38248,3.99897,207.887,3.88064,186.41,0.02082,382,303.99,-6.03025
38305,3.9993,196.09,4.30104,221.074,0.01946,382,189.976,-5.21544
38362,3.99931,211.719,3.68525,207.676,0.01775,382,75.96188,-4.33895
38419,3.99919,200.347,4.1535,202.893,0.02047,384,361.998,-6.41966
38476,3.99932,195.469,4.32923,221.419,0.01955,384,247.983,-5.65669
38533,3.9991,189.3471,4.65365,214.125,0.02173,384,133.969,-4.85337
38590,3.99905,196.11,4.34224,204.795,0.0212,384,19.95487,-3.95545
38647,3.9988,205.199,3.95876,198.043,0.01999,386.001,305.991,-6.10591
38704,3.99909,200.457,4.11405,216.997,0.01896,386.001,191.976,-5.27201
38761,3.99926,162.566,6.49856,216.563,0.03001,386.001,77.96213,-4.40852
38818,3.99908,193.626,4.44241,211.81,0.02097,388.001,363.998,-6.49626
38875,3.99913,198.754,4.22983,201.106,0.02103,388.001,249.984,-5.69788
38932,3.9992,202.2958,4.03772,216.019,0.01869,388.001,135.969,-4.92148
38989,3.99883,216.7168,3.52991,196.598,0.01795,388.001,21.95513,-3.97701
39046,3.99902,205.463,3.93674,202.741,0.01942,390.001,307.991,-6.1857
39103,3.99922,201.488,4.04804,227.408,0.0178,390.001,193.977,-5.33953
39160,3.99903,201.919,4.09069,200.579,0.02039,390.001,79.96237,-4.46652
39217,3.99901,206.13,3.93725,191.733,0.02054,392.001,365.998,-6.56344
39274,3.99922,198.335,4.18941,225.153,0.01861,392.001,251.984,-5.76345
39331,3.99935,208.109,3.80824,213.943,0.0178,392.001,137.97,-4.98337
39388,3.99915,203.33,4.03743,197.923,0.0204,392.001,23.95538,-4.06061
39445,3.99903,207.498,3.8621,199.844,0.01933,394.002,309.991,-6.26838
39502,3.99912,200.229,4.12204,217.8528,0.01892,394.002,195.977,-5.39599
39559,3.99894,201.002,4.12348,203.236,0.02029,394.002,81.96263,-4.53632
39616,3.99931,211.36,3.69514,209.339,0.01765,396.002,367.998,-6.62643
39673,3.99925,196.75,4.24008,234.921,0.01805,396.002,253.984,-5.82868
39730,3.99888,193.05,4.4678,212.791,0.021,396.002,139.97,-5.05994
39787,3.99908,201.928,4.09705,198.065,0.02069,396.002,25.95563,-4.11762
39844,3.99886,210.341,3.80015,180.591,0.02104,398.002,311.991,-6.32726
39901,3.99902,206.681,3.90974,193.719,0.02018,398.002,197.977,-5.45708
39958,3.99921,197.059,4.33214,193.293,0.02241,398.002,83.96288,-4.60034
40000,3.99938,182.299,5.07887,206.837,0.02455,398.002,0,-3.92827