File: data/nanoindent_maps/Duplex Steel 3p5um.csv
Index,Load,Depth,HARDNESS,MODULUS,H/E,X Position,Y Position,Z Position
Integer,mN,nm,GPa,GPa,None,µm,µm,µm
1,9.99814,342.768,3.71158,221.011,0.01679,0,696.468,-5.88935
58,9.99848,337.586,3.82287,227.553,0.0168,0,496.967,-4.62656
115,9.99837,336.615,3.86901,215.545,0.01795,0,297.466,-3.18259
172,9.99833,329.926,4.05677,208.231,0.01948,0,97.96463,-2.0036
229,9.99867,334.7462,3.89974,223.7026,0.01743,3.52425,598.456,-5.1495
286,9.99861,327.488,4.12869,205.865,0.02006,3.52425,398.955,-3.87393
343,9.99883,342.886,3.70069,225.977,0.01638,3.52425,199.4535,-2.48112
400,9.99837,346.227,3.68612,193.6395,0.01904,3.52425,0,-1.39804
457,9.99852,328.986,4.07711,210.323,0.01938,7.00087,500.491,-4.54167
514,9.9987,328.521,4.07254,217.898,0.01869,7.00087,300.99,-3.1068
571,9.99874,317.434,4.40146,212.58,0.0207,7.00087,101.489,-1.93517
628,9.99832,323.3273,4.20331,223.173,0.01883,10.52512,601.98,-5.11396
685,9.99835,325.428,4.16794,213.026,0.01957,10.52512,402.479,-3.84605
742,9.99822,292.298,5.45737,177.376,0.03077,10.52512,202.978,-2.46242
799,9.99856,345.6112,3.65184,218.109,0.01674,10.52512,3.47663,-1.37091
856,9.9986,290.3985,5.45803,191.762,0.02846,14.00175,503.968,-4.52134
913,9.99886,336.184,3.86211,224.826,0.01718,14.00175,304.467,-3.11008
970,9.99855,321.34,4.27424,217.072,0.01969,14.00175,104.9655,-1.94097
1027,9.99783,349.653,3.60546,194.949,0.01849,17.526,605.457,-5.15562
1084,9.99892,343.5459,3.6989,218.198,0.01695,17.526,405.9555,-3.88525
1141,9.99857,330.391,4.02273,217.969,0.01846,17.526,206.454,-2.52599
1198,9.99827,346.961,3.65093,202.236,0.01805,17.526,6.95325,-1.43563
1255,9.99889,351.545,3.53336,211.202,0.01673,21.00263,507.492,-4.58226
1312,9.99867,348.12,3.59682,217.5938,0.01653,21.00263,307.991,-3.17945
1369,9.99855,327.667,4.10826,212.2494,0.01936,21.00263,108.49,-2.00917
1426,9.9989,334.445,3.90074,227.281,0.01716,24.52688,608.981,-5.24527
1483,9.99887,347.141,3.62191,215.666,0.01679,24.52688,409.48,-3.94813
1540,9.99839,324.8406,4.16837,219.892,0.01896,24.52688,209.979,-2.59476
1597,9.99845,340.048,3.76962,224.305,0.01681,24.52688,10.4775,-1.51665
1654,9.99834,351.215,3.5239,221.106,0.01594,28.0035,510.969,-4.68732
1711,9.99864,346.612,3.66782,198.005,0.01852,28.0035,311.4675,-3.26958
1768,9.99855,342.954,3.69814,226.509,0.01633,28.0035,111.966,-2.09246
1825,9.99875,326.406,4.10584,229.253,0.01791,31.52775,612.4575,-5.33102
1882,9.99862,338.038,3.84451,210.44,0.01827,31.52775,412.956,-4.06
1939,9.9985,326.768,4.13175,212.703,0.01942,31.52775,213.455,-2.65795
1996,9.99827,331.301,4.00431,215.376,0.01859,31.52775,13.95413,-1.60586
2053,9.99875,351.59,3.53382,210.355,0.0168,35.00437,514.493,-4.77955
2110,9.99833,337.651,3.83474,220.106,0.01742,35.00437,314.992,-3.36598
2167,9.99873,342.241,3.71452,226.586,0.01639,35.00437,115.491,-2.18252
2224,9.99854,323.57,4.19783,222.616,0.01886,38.52863,615.982,-5.42011
2281,9.99866,338.347,3.8209,218.552,0.01748,38.52863,416.481,-4.14343
2338,9.9985,325.511,4.17483,209.288,0.01995,38.52863,216.9795,-2.73944
2395,9.99829,342.284,3.75456,204.486,0.01836,38.52863,17.47838,-1.70114
2452,9.99865,362.635,3.32512,200.069,0.01662,42.00525,517.9695,-4.82053
2509,9.99822,334.686,3.91149,218.318,0.01792,42.00525,318.468,-3.47424
2566,9.99868,349.8,3.5468,225.999,0.01569,42.00525,118.967,-2.28041
2623,9.99848,333.11,3.93631,226.096,0.01741,45.5295,619.458,-5.49897
2680,9.99841,343.966,3.68321,221.55,0.01662,45.5295,419.957,-4.23652
2737,9.99868,323.854,4.24841,199.344,0.02131,45.5295,220.456,-2.83493
2794,9.99827,369.693,3.19604,197.064,0.01622,45.5295,20.955,-1.76817
2851,9.99861,343.5461,3.69494,220.375,0.01677,49.00613,521.494,-4.90273
2908,9.99849,332.722,3.95365,222.206,0.01779,49.00613,321.993,-3.57872
2965,9.99843,343.15,3.68919,229.222,0.01609,49.00613,122.4915,-2.38462
3022,9.99847,334.335,3.9368,210.487,0.0187,52.53037,622.983,-5.56143
3079,9.99843,325.013,4.17071,216.762,0.01924,52.53037,423.4815,-4.33949
3136,9.99837,323.847,4.21021,213.883,0.01968,52.53037,223.98,-2.91892
3193,9.99836,335.907,3.88929,214.214,0.01816,52.53037,24.47925,-1.90581
3250,9.99862,342.036,3.71418,229.657,0.01617,56.007,524.97,-4.98828
3307,9.9988,334.157,3.90377,229.55,0.01701,56.007,325.469,-3.68893
3364,9.99871,341.766,3.73182,222.882,0.01674,56.007,125.968,-2.46762
3421,9.9984,333.5749,3.95586,210.637,0.01878,59.53125,626.459,-5.6539
3478,9.9985,332.309,3.9714,218.646,0.01816,59.53125,426.958,-4.42112
3535,9.99874,331.152,3.99193,223.336,0.01787,59.53125,227.457,-3.02611
3592,9.99824,347.144,3.64161,204.834,0.01778,59.53125,27.95588,-2.01034
3649,9.99837,348.086,3.61469,207.903,0.01739,63.00787,528.495,-5.09817
3706,9.99864,353.787,3.47664,216.734,0.01604,63.00787,328.9935,-3.7576
3763,9.99863,336.642,3.83132,236.141,0.01622,63.00787,129.492,-2.57138
3820,9.99815,340.0033,3.79451,211.483,0.01794,66.53213,629.9835,-5.75151
3877,9.9986,333.6187,3.95298,211.48,0.01869,66.53213,430.482,-4.52123
3934,9.9986,321.06,4.28101,217.63,0.01967,66.53213,230.981,-3.16271
3991,9.99859,342.685,3.72269,215.983,0.01724,66.53213,31.48013,-2.12744
4048,9.99829,343.744,3.69802,216.011,0.01712,70.00875,531.971,-5.23136
4105,9.99818,343.814,3.71939,204.0954,0.01822,70.00875,332.47,-3.84771
4162,9.99849,333.0641,3.93488,227.487,0.0173,70.00875,132.969,-2.69506
4219,9.99824,348.744,3.6118,201.776,0.0179,73.533,633.46,-5.85187
4276,9.99895,339.336,3.78422,225.7488,0.01676,73.533,433.959,-4.64124
4333,9.99841,326.539,4.13072,215.835,0.01914,73.533,234.458,-3.26894
4390,9.99831,342.378,3.72837,216.717,0.0172,73.533,34.95675,-2.23078
4447,9.99837,337.871,3.83078,219.362,0.01746,77.00962,535.4955,-5.35935
4504,9.99845,337.983,3.81887,224.385,0.01702,77.00962,335.994,-3.95559
4561,9.99873,340.999,3.73932,229.039,0.01633,77.00962,136.493,-2.79524
4618,9.99835,346.419,3.63847,215.316,0.0169,80.53387,636.984,-5.96108
4675,9.9989,341.841,3.72811,224.068,0.01664,80.53387,437.483,-4.76127
4732,9.99845,333.244,3.98645,201.159,0.01982,80.53387,237.982,-3.36393
4789,9.99859,334.5259,3.90077,226.082,0.01725,80.53387,38.481,-2.33604
4846,9.99846,336.961,3.86619,212.743,0.01817,84.0105,538.972,-5.47637
4903,9.99853,340.029,3.80934,204.136,0.01866,84.0105,339.471,-4.0852
4960,9.99875,339.533,3.78229,224.119,0.01688,84.0105,139.97,-2.87927
5017,9.99829,355.481,3.45731,206.993,0.0167,87.53475,640.461,-6.07204
5074,9.99855,327.376,4.08495,226.589,0.01803,87.53475,440.96,-4.87194
5131,9.9984,334.059,3.96521,201.192,0.01971,87.53475,241.459,-3.47423
5188,9.99867,336.526,3.83382,236.333,0.01622,87.53475,41.95763,-2.43949
5245,9.99852,347.808,3.58319,230.483,0.01555,91.01138,542.496,-5.56596
5302,9.99843,342.966,3.77342,189.146,0.01995,91.01138,342.995,-4.21281
5359,9.9986,339.657,3.77686,225.506,0.01675,91.01138,143.494,-2.98062
5416,9.99868,326.027,4.11349,230.555,0.01784,94.53563,643.985,-6.20284
5473,9.99878,333.9997,3.94889,208.949,0.0189,94.53563,444.484,-4.98533
5530,9.9982,346.55,3.66948,197.801,0.01855,94.53563,244.983,-3.56231
5587,9.99868,340.209,3.75974,227.8922,0.0165,94.53563,45.48188,-2.53865
5644,9.99858,342.754,3.69723,229.903,0.01608,98.01225,545.973,-5.66699
5701,9.99894,345.033,3.66556,217.831,0.01683,98.01225,346.472,-4.32251
5758,9.99873,334.066,3.90125,232.2367,0.0168,98.01225,146.971,-3.10119
5815,9.99881,341.213,3.74702,221.617,0.01691,101.5365,647.462,-6.34198
5872,9.9987,344.635,3.65839,227.458,0.01608,101.5365,447.961,-5.12627
5929,9.99816,324.534,4.18464,216.468,0.01933,101.5365,248.46,-3.65529
5986,9.99861,325.2576,4.18419,208.397,0.02008,101.5365,48.9585,-2.64471
6043,9.99842,338.294,3.82508,216.994,0.01763,105.013,549.497,-5.78379
6100,9.99869,333.113,3.91747,236.662,0.01655,105.013,349.996,-4.47159
6157,9.99802,346.809,3.66682,196.258,0.01868,105.013,150.495,-3.17412
6214,9.99873,338.859,3.78795,230.162,0.01646,108.537,650.986,-6.47664
6271,9.99859,336.801,3.87761,209.207,0.01853,108.537,451.485,-5.2304
6328,9.99858,329.387,4.07463,206.847,0.0197,108.537,251.984,-3.77014
6385,9.99852,328.608,4.10149,204.501,0.02006,108.537,52.48275,-2.73994
6442,9.99845,324.908,4.17871,214.609,0.01947,112.014,552.974,-5.88174
6499,9.99848,343.667,3.68765,222.977,0.01654,112.014,353.473,-4.56155
6556,9.99832,343.361,3.72709,205.528,0.01813,112.014,153.972,-3.25804
6613,9.99866,341.536,3.73819,222.2922,0.01682,115.538,654.463,-6.5899
6670,9.99826,346.285,3.66254,204.098,0.01794,115.538,454.962,-5.3059
6727,9.99829,353.874,3.49435,205.062,0.01704,115.538,255.4605,-3.8767
6784,9.99841,326.7979,4.15302,203.766,0.02038,115.538,55.95938,-2.84893
6841,9.99869,324.6082,4.17669,219.131,0.01906,119.015,556.498,-5.9756
6898,9.99855,326.47,4.17872,197.6736,0.02114,119.015,356.997,-4.65822
6955,9.99816,352.23,3.5439,197.4377,0.01795,119.015,157.496,-3.33986
7012,9.99867,343.565,3.68382,226.743,0.01625,122.539,657.987,-6.69341
7069,9.9984,336.67,3.87368,212.588,0.01822,122.539,458.486,-5.38377
7126,9.99857,327.357,4.10855,215.801,0.01904,122.539,258.985,-4.01657
7183,9.99842,333.878,3.96439,203.49,0.01948,122.539,59.48363,-2.94151
7240,9.9983,354.37,3.49501,199.0495,0.01756,126.016,559.975,-6.0816
7297,9.99838,327.699,4.09888,215.932,0.01898,126.016,360.474,-4.75414
7354,9.99851,336.511,3.9069,199.464,0.01959,126.016,160.9725,-3.4696
7411,9.99869,337.681,3.80995,233.8856,0.01629,129.54,661.464,-6.79789
7468,9.99836,338.182,3.83857,211.559,0.01814,129.54,461.9625,-5.48191
7525,9.9986,329.859,4.08221,198.839,0.02053,129.54,262.461,-4.10578
7582,9.99857,345.19,3.7119,192.913,0.01924,129.54,62.96025,-3.03484
7639,9.99837,336.637,3.86528,217.152,0.0178,133.017,563.499,-6.18865
7696,9.99861,323.77,4.1936,222.012,0.01889,133.017,363.998,-4.86468
7753,9.9985,339.373,3.81735,207.8308,0.01837,133.017,164.497,-3.60827
7810,9.99878,341.05,3.74012,227.85,0.01641,136.541,664.988,-6.90506
7867,9.9984,338.344,3.83493,211.406,0.01814,136.541,465.487,-5.61516
7924,9.99863,342.151,3.73885,214.01,0.01747,136.541,265.986,-4.22494
7981,9.99849,333.116,3.96355,212.527,0.01865,136.541,66.4845,-3.17545
8038,9.99876,341.691,3.76022,208.647,0.01802,140.0175,566.976,-6.31524
8095,9.99823,320.297,4.29518,220.89,0.01944,140.0175,367.4745,-4.98355
8152,9.99859,344.706,3.70349,201.865,0.01835,140.0175,167.973,-3.71193
8209,9.99819,339.787,3.79282,214.99,0.01764,143.542,668.4645,-7.01995
8266,9.99838,334.608,3.98125,189.515,0.02101,143.542,468.963,-5.73634
8323,9.99871,352.02,3.5241,210.636,0.01673,143.542,269.462,-4.33329
8380,9.99857,320.627,4.2931,217.818,0.01971,143.542,69.96113,-3.28436
8437,9.99858,343.922,3.67748,225.61,0.0163,147.018,570.5,-6.43167
8494,9.99842,344.83,3.66891,218.43,0.0168,147.018,370.999,-5.10079
8551,9.99852,347.671,3.60697,217.426,0.01659,147.018,171.498,-3.8132
8608,9.99842,341.063,3.80763,193.898,0.01964,150.543,671.989,-7.15331
8665,9.99828,334.248,3.91156,223.958,0.01747,150.543,472.488,-5.85699
8722,9.99858,329.008,4.06389,215.881,0.01882,150.543,272.9865,-4.46883
8779,9.99836,330.708,4.01864,215.951,0.01861,150.543,73.48538,-3.40528
8836,9.99836,337.784,3.82914,221.3783,0.0173,154.019,573.9765,-6.55242
8893,9.99845,335.711,3.87844,222.219,0.01745,154.019,374.475,-5.22672
8950,9.99865,340.316,3.77011,220.504,0.0171,154.019,174.974,-3.91486
9007,9.99835,319.077,4.33747,218.232,0.01988,157.5435,675.465,-7.29715
9064,9.99853,341.497,3.76127,210.372,0.01788,157.5435,475.964,-5.98278
9121,9.99869,335.966,3.90573,205.9201,0.01897,157.5435,276.463,-4.5896
9178,9.99876,342.629,3.70908,224.493,0.01652,157.5435,76.962,-3.53925
9235,9.99853,336.359,3.88672,210.079,0.0185,161.02,577.453,-6.6701
9292,9.9984,340.849,3.78023,208.579,0.01812,161.02,378,-5.35661
9349,9.99848,336.045,3.90469,205.459,0.019,161.02,178.4985,-4.07518
9406,9.99855,334.617,3.93543,207.879,0.01893,164.544,678.99,-7.37847
9463,9.99857,342.416,3.71864,221.733,0.01677,164.544,479.4885,-6.10466
9520,9.99865,346.66,3.65684,202.775,0.01803,164.544,279.987,-4.71227
9577,9.99827,347.5949,3.6344,203.353,0.01787,164.544,80.48625,-3.65296
9634,9.99859,333.09,3.958,215.458,0.01837,168.021,580.977,-6.79118
9691,9.9985,334.019,3.93475,215.234,0.01828,168.021,381.476,-5.48355
9748,9.99847,353.526,3.50354,204.104,0.01717,168.021,181.975,-4.18283
9805,9.99857,328.404,4.11675,200.749,0.02051,171.545,682.466,-7.49254
9862,9.99851,329.785,4.0539,211.109,0.0192,171.545,482.965,-6.22719
9919,9.9986,344.7605,3.67124,218.05,0.01684,171.545,283.464,-4.83667
9976,9.99842,337.07,3.87399,207.755,0.01865,171.545,83.96288,-3.77838
10033,9.9984,331.63,3.99966,213.592,0.01873,175.022,584.454,-6.91304
10090,9.99848,329.51,4.06504,209.47,0.01941,175.022,384.953,-5.61968
10147,9.9987,332.542,3.95001,226.537,0.01744,175.022,185.499,-4.30854
10204,9.99853,332.756,3.97401,211.989,0.01875,178.546,685.9905,-7.60712
10261,9.99838,334.4279,3.92729,213.815,0.01837,178.546,486.489,-6.34631
10318,9.99846,353.343,3.50534,205.243,0.01708,178.546,286.988,-4.93689
10375,9.99856,338.446,3.78384,238.77,0.01585,178.546,87.48713,-3.8487
10432,9.99854,333.608,3.9299,222.866,0.01763,182.023,587.978,-7.04189
10489,9.99872,329.328,4.06819,210.25,0.01935,182.023,388.477,-5.74749
10546,9.99845,345.261,3.67357,210.467,0.01745,182.023,188.976,-4.39768
10603,9.99859,330.128,4.02991,217.855,0.0185,185.547,689.467,-7.75218
10660,9.9984,336.314,3.88865,209.678,0.01855,185.547,489.966,-6.48706
10717,9.99856,348.438,3.58428,220.93,0.01622,185.547,290.465,-5.07888
10774,9.99788,341.5929,3.75211,213.775,0.01755,185.547,90.96375,-3.93169
10831,9.99871,337.71,3.82339,225.604,0.01695,189.024,591.455,-7.13792
10888,9.99869,335.438,3.89439,217.557,0.0179,189.024,391.954,-5.88029
10945,9.9985,327.475,4.12509,207.438,0.01989,189.024,192.453,-4.51246
11002,9.99849,326.432,4.14987,209.028,0.01985,192.5,692.991,-7.89094
11059,9.99842,345.902,3.6721,203.713,0.01803,192.5,493.49,-6.57955
11116,9.99859,335.932,3.87028,223.687,0.0173,192.5,293.989,-5.24176
11173,9.99814,329.248,4.077,207.334,0.01966,192.5,94.488,-4.04905
11230,9.99858,333.6855,3.95333,210.533,0.01878,196.0245,594.979,-7.26225
11287,9.99887,334.564,3.87943,237.863,0.01631,196.0245,395.478,-6.02418
11344,9.99827,319.564,4.29318,231.23,0.01857,196.0245,195.977,-4.64492
11401,9.99822,333.827,3.95593,207.6644,0.01905,199.501,696.468,-8.01699
11458,9.99831,343.464,3.70724,214.501,0.01728,199.501,496.967,-6.69913
11515,9.99854,352.509,3.56007,187.035,0.01903,199.501,297.466,-5.35311
11572,9.99892,340.628,3.77404,214.479,0.0176,199.501,97.96463,-4.19672
11629,9.9987,339.207,3.80208,217.54,0.01748,203.025,598.456,-7.37373
11686,9.9989,325.418,4.13931,226.069,0.01831,203.025,398.955,-6.13314
11743,9.99835,325.971,4.12288,226.578,0.0182,203.025,199.4535,-4.7603
11800,9.99821,332.9676,3.98455,204.883,0.01945,203.025,0,-3.62214
11857,9.99887,332.8422,3.97375,211.1704,0.01882,206.502,500.491,-6.82176
11914,9.99813,344.254,3.70022,208.56,0.01774,206.502,300.99,-5.4501
11971,9.99844,337.977,3.82052,223.547,0.01709,206.502,101.489,-4.34115
12028,9.99848,342.18,3.75335,206.288,0.01819,210.026,601.98,-7.50514
12085,9.99852,333.779,3.8971,238.85,0.01632,210.026,402.479,-6.23431
12142,9.99846,331.932,4.00383,208.24,0.01923,210.026,202.978,-4.86424
12199,9.99773,350.14,3.59271,195.8481,0.01834,210.026,3.47663,-3.72538
12256,9.99881,332.299,3.93598,237.849,0.01655,213.503,503.968,-6.96042
12313,9.99837,355.434,3.46283,204.407,0.01694,213.503,304.467,-5.54453
12370,9.99855,333.999,3.92179,221.96,0.01767,213.503,104.9655,-4.41801
12427,9.99865,335.186,3.8819,227.444,0.01707,217.027,605.457,-7.6158
12484,9.99851,339.117,3.77513,234.192,0.01612,217.027,405.9555,-6.3275
12541,9.99864,325.712,4.18328,203.821,0.02052,217.027,206.454,-4.95691
12598,9.99858,344.624,3.69055,209.2447,0.01764,217.027,6.95325,-3.86279
12655,9.9985,334.087,3.91455,224.564,0.01743,220.504,507.492,-7.1004
12712,9.99855,335.545,3.9008,213.0596,0.01831,220.504,307.991,-5.67229
12769,9.99827,340.408,3.79504,206.513,0.01838,220.504,108.49,-4.52798
12826,9.99872,335.759,3.8641,229.509,0.01684,224.028,608.981,-7.73032
12883,9.99833,313.745,4.43188,247.698,0.01789,224.028,409.48,-6.46504
12940,9.99851,322.206,4.22557,227.513,0.01857,224.028,209.979,-5.04211
12997,9.99848,341.245,3.76373,212.148,0.01774,224.028,10.4775,-3.98549
13054,9.9987,351.491,3.53526,210.735,0.01678,227.505,510.969,-7.19602
13111,9.99856,336.527,3.8892,207.014,0.01879,227.505,311.4675,-5.78226
13168,9.99844,344.062,3.719,201.574,0.01845,227.505,111.966,-4.64407
13225,9.99839,342.8609,3.72234,213.927,0.0174,231.029,612.4575,-7.84484
13282,9.99863,329.794,4.0075,233.658,0.01715,231.029,412.956,-6.57101
13339,9.99868,334.486,3.91253,220.446,0.01775,231.029,213.455,-5.14823
13396,9.99866,290.344,5.36585,212.163,0.02529,231.029,13.95413,-4.10906
13453,9.99851,340.487,3.78963,208.246,0.0182,234.5055,514.493,-7.31512
13510,9.99858,322.692,4.2392,215.501,0.01967,234.5055,314.992,-5.91081
13567,9.9988,355.221,3.45659,210.733,0.0164,234.5055,115.491,-4.75946
13624,9.99856,342.6,3.74787,204.1693,0.01836,238.03,615.982,-7.98017
13681,9.99869,353.426,3.47733,221.139,0.01572,238.03,416.481,-6.69412
13738,9.9984,338.627,3.79915,226.7582,0.01675,238.03,216.9795,-5.26485
13795,9.99867,338.384,3.79952,230.014,0.01652,238.03,17.47838,-4.24806
13852,9.99865,329.083,4.04943,221.708,0.01826,241.506,517.9695,-7.41926
13909,9.99833,337.6231,3.83981,217.797,0.01763,241.506,318.468,-6.02584
13966,9.99864,358.194,3.38094,220.45,0.01534,241.506,118.967,-4.86419
14023,9.99829,339.151,3.84851,196.323,0.0196,245.031,619.458,-8.08942
14080,9.99831,331.506,3.97651,226.452,0.01756,245.031,419.957,-6.83037
14137,9.99842,339.134,3.81512,211.708,0.01802,245.031,220.456,-5.39247
14194,9.99877,340.794,3.75621,221.986,0.01692,245.031,20.955,-4.37676
14251,9.9986,329.685,4.06342,208.193,0.01952,248.507,521.494,-7.48584
14308,9.99867,334.143,3.90843,227.143,0.01721,248.507,321.993,-6.16406
14365,9.99828,343.693,3.7344,198.411,0.01882,248.507,122.4915,-4.98656
14422,9.99851,345.986,3.67544,201.1645,0.01827,252.0315,622.983,-8.19556
14479,9.99789,351.655,3.54599,202.706,0.01749,252.0315,423.4815,-6.94932
14536,9.9987,336.701,3.87565,211.329,0.01834,252.0315,223.98,-5.50089
14593,9.99861,326.819,4.07482,239.768,0.01699,252.0315,24.47925,-4.50614
14650,9.99842,322.793,4.25036,209.832,0.02026,255.508,524.97,-7.60949
14707,9.99844,355.3,3.4432,217.994,0.01579,255.508,325.469,-6.2963
14764,9.99868,339.836,3.78867,216.661,0.01749,255.508,125.968,-5.10509
14821,9.99864,336.415,3.88845,208.647,0.01864,259.032,626.459,-8.33702
14878,9.99812,344.278,3.68707,215.2459,0.01713,259.032,426.958,-7.0877
14935,9.99834,347.272,3.63398,207.321,0.01753,259.032,227.457,-5.63127
14992,9.99882,337.389,3.80866,239.098,0.01593,259.032,27.95588,-4.63452
15049,9.99882,329.984,4.02434,222.389,0.0181,262.509,528.495,-7.74419
15106,9.99838,332.582,3.9862,208.522,0.01912,262.509,328.9935,-6.44593
15163,9.99837,322.032,4.24289,221.899,0.01912,262.509,129.492,-5.21132
15220,9.99804,336.885,3.88042,206.834,0.01876,266.033,629.9835,-8.46805
15277,9.99832,356.191,3.46867,192.9246,0.01798,266.033,430.482,-7.20631
15334,9.99848,336.435,3.89095,207.24,0.01878,266.033,230.981,-5.75379
15391,9.99889,342.283,3.71955,223.0683,0.01667,266.033,31.48013,-4.75018
15448,9.99858,338.922,3.85125,197.598,0.01949,269.51,531.971,-7.85554
15505,9.99867,325.159,4.1608,219.384,0.01897,269.51,332.47,-6.54492
15562,9.99846,342.526,3.73975,208.984,0.01789,269.51,132.969,-5.27409
15619,9.99813,361.535,3.36034,192.438,0.01746,273.034,633.46,-8.56771
15676,9.99846,341.67,3.74465,216.914,0.01726,273.034,433.959,-7.34172
15733,9.99846,338.497,3.8347,209.7215,0.01828,273.034,234.458,-5.8715
15790,9.99838,343.828,3.71592,205.6768,0.01807,273.034,34.95675,-4.8243
15847,9.99855,331.275,4.01845,209.386,0.01919,276.511,535.4955,-7.98794
15904,9.99846,327.239,4.12177,211.455,0.01949,276.511,335.994,-6.64005
15961,9.99883,343.518,3.70613,214.55,0.01727,276.511,136.493,-5.38273
16018,9.99836,340.939,3.7726,211.311,0.01785,280.035,636.984,-8.71207
16075,9.99869,338.444,3.78423,238.584,0.01586,280.035,437.483,-7.45984
16132,9.99853,337.904,3.8435,212.506,0.01809,280.035,237.982,-5.99279
16189,9.99823,340.905,3.77168,212.156,0.01778,280.035,38.481,-4.91845
16246,9.99864,334.866,3.87789,234.248,0.01655,283.512,538.972,-8.11056
16303,9.99863,327.9188,4.0861,219.085,0.01865,283.512,339.471,-6.75345
16360,9.99867,320.019,4.31472,216.276,0.01995,283.512,139.97,-5.51084
16417,9.99835,339.983,3.81529,201.896,0.0189,287.036,640.461,-8.83685
16474,9.99811,340.745,3.78007,209.826,0.01802,287.036,440.96,-7.55767
16531,9.99853,332.3,3.9908,209.758,0.01903,287.036,241.459,-6.09949
16588,9.9983,342.389,3.72839,216.568,0.01722,287.036,41.95763,-5.04668
16645,9.99861,338.432,3.80097,228.463,0.01664,290.5125,542.496,-8.22165
16702,9.99856,331.406,4.00459,214.038,0.01871,290.5125,342.995,-6.86878
16759,9.9986,334.64,3.91239,218.535,0.0179,290.5125,143.494,-5.61136
16816,9.99838,342.207,3.77404,196.458,0.01921,294.037,643.985,-8.95579
16873,9.99833,329.379,4.06513,210.895,0.01928,294.037,444.484,-7.65964
16930,9.99866,346.066,3.64972,213.537,0.01709,294.037,244.983,-6.22542
16987,9.99841,351.306,3.56424,197.359,0.01806,294.037,45.48188,-5.17743
17044,9.99853,321.341,4.2565,224.6611,0.01895,297.513,545.973,-8.26596
17101,9.99864,339.678,3.82364,201.543,0.01897,297.513,346.472,-6.97487
17158,9.99836,342.345,3.76034,201.11,0.0187,297.513,146.971,-5.71625
17215,9.99814,345.564,3.68013,203.516,0.01808,301.038,647.462,-9.07027
17272,9.99844,347.1,3.64463,203.853,0.01788,301.038,447.961,-7.75995
17329,9.99826,341.314,3.76581,210.218,0.01791,301.038,248.46,-6.35178
17386,9.99837,345.748,3.67507,203.974,0.01802,301.038,48.9585,-5.29227
17443,9.99868,347.123,3.65137,200.309,0.01823,304.514,549.497,-8.38848
17500,9.99832,341.218,3.77941,204.726,0.01846,304.514,349.996,-7.12988
17557,9.99841,341.793,3.76269,206.185,0.01825,304.514,150.495,-5.84587
17614,9.99853,340.812,3.79815,200.632,0.01893,308.0385,650.986,-9.18648
17671,9.99827,343.358,3.73544,201.552,0.01853,308.0385,451.485,-7.868
17728,9.99855,333.599,3.9204,228.029,0.01719,308.0385,251.984,-6.4797
17785,9.9986,341.708,3.72499,227.69,0.01636,308.0385,52.48275,-5.43071
17842,9.99846,339.165,3.83223,203.271,0.01885,311.515,552.974,-8.5546
17899,9.9984,335.763,3.90314,209.355,0.01864,311.515,353.473,-7.22127
17956,9.9986,336.942,3.85571,218.262,0.01767,311.515,153.972,-5.95532
18013,9.99842,348.079,3.64065,195.107,0.01866,315.039,654.463,-9.29741
18070,9.99903,353.805,3.49413,206.173,0.01695,315.039,454.962,-7.96646
18127,9.99877,333.9606,3.88725,242.222,0.01605,315.039,255.4605,-6.61604
18184,9.99826,341.655,3.72502,228.3265,0.01631,315.039,55.95938,-5.54991
18241,9.99837,346.698,3.66067,200.416,0.01827,318.516,556.498,-8.67971
18298,9.99848,340.527,3.77507,215.098,0.01755,318.516,356.997,-7.32856
18355,9.99869,352.726,3.49568,218.773,0.01598,318.516,157.496,-6.04593
18412,9.99835,349.0746,3.57725,216.708,0.01651,322.04,657.987,-9.41886
18469,9.99844,330.713,4.02306,213.871,0.01881,322.04,458.486,-8.10517
18526,9.99879,352.263,3.49562,225.225,0.01552,322.04,258.985,-6.71828
18583,9.99899,339.293,3.76353,239.0692,0.01574,322.04,59.48363,-5.65133
18640,9.9986,343.4706,3.72378,205.952,0.01808,325.517,559.975,-8.79917
18697,9.99849,346.895,3.62712,215.745,0.01681,325.517,360.474,-7.43079
18754,9.99848,347.121,3.61974,217.08,0.01667,325.517,160.9725,-6.17089
18811,9.99832,340.031,3.78942,213.758,0.01773,329.041,661.464,-9.5352
18868,9.99852,335.848,3.8957,211.868,0.01839,329.041,461.9625,-8.21547
18925,9.99862,334.064,3.89688,234.771,0.0166,329.041,262.461,-6.84514
18982,9.99871,342.568,3.70652,226.853,0.01634,329.041,62.96025,-5.71059
19039,9.99875,317.236,4.38263,222.283,0.01972,332.518,563.499,-8.90045
19096,9.99836,336.874,3.84528,224.651,0.01712,332.518,363.998,-7.57314
19153,9.99837,343.51,3.68595,226.1283,0.0163,332.518,164.497,-6.27048
19210,9.99835,326.633,4.16703,200.218,0.02081,336.042,664.988,-9.64936
19267,9.99848,320.374,4.29473,220.188,0.0195,336.042,465.487,-8.32115
19324,9.99872,335.446,3.87904,225.485,0.0172,336.042,265.986,-6.93393
19381,9.9986,329.148,4.07419,209.728,0.01943,336.042,66.4845,-5.79194
19438,9.99866,337.863,3.81821,226.426,0.01686,339.519,566.976,-9.0226
19495,9.99869,336.264,3.87271,218.145,0.01775,339.519,367.4745,-7.70002
19552,9.99838,349.341,3.61662,193.096,0.01873,339.519,167.973,-6.37674
19609,9.99833,328.095,4.14541,193.408,0.02143,343.043,668.4645,-9.76172
19666,9.99811,350.131,3.59024,197.205,0.01821,343.043,468.963,-8.42748
19723,9.99876,339.138,3.78905,225.635,0.01679,343.043,269.462,-7.01522
19780,9.9985,340.295,3.79621,207.294,0.01831,343.043,69.96113,-5.88539
19837,9.99876,335.942,3.85334,233.16,0.01653,346.5195,570.5,-9.14263
19894,9.99877,335.413,3.86595,233.382,0.01656,346.5195,370.999,-7.82264
19951,9.99851,338.507,3.8242,214.802,0.0178,346.5195,171.498,-6.46537
20008,9.99805,351.437,3.56141,197.276,0.01805,350.044,671.989,-9.86728
20065,9.99851,337.999,3.85643,205.2822,0.01879,350.044,472.488,-8.53958
20122,9.99833,332.585,3.96666,217.474,0.01824,350.044,272.9865,-7.12597
20179,9.99865,337.238,3.85114,216.886,0.01776,350.044,73.48538,-5.99206
20236,9.99867,342.577,3.7317,212.545,0.01756,353.52,573.9765,-9.2366
20293,9.99864,331.927,3.93738,242.634,0.01623,353.52,374.475,-7.93775
20350,9.99847,340.06,3.78203,217.298,0.0174,353.52,174.974,-6.56317
20407,9.99805,345.099,3.69182,203.0022,0.01819,357.045,675.465,-9.97396
20464,9.99858,342.954,3.7275,210.145,0.01774,357.045,475.964,-8.64206
20521,9.99827,336.312,3.86334,222.324,0.01738,357.045,276.463,-7.22347
20578,9.99867,337.86,3.8278,221.167,0.01731,357.045,76.962,-6.12568
20635,9.99848,343.372,3.7165,210.765,0.01763,360.521,577.453,-9.3394
20692,9.99867,333.893,3.91393,227.558,0.0172,360.521,378,-8.04897
20749,9.9987,342.138,3.71051,230.49,0.0161,360.521,178.4985,-6.64904
20806,9.99807,343.346,3.73943,199.795,0.01872,364.0455,678.99,-10.06513
20863,9.99848,343.836,3.70404,211.663,0.0175,364.0455,479.4885,-8.74012
20920,9.99845,341.481,3.78821,197.887,0.01914,364.0455,279.987,-7.32083
20977,9.99881,338.661,3.79521,228.6787,0.0166,364.0455,80.48625,-6.23061
21034,9.99856,285.199,5.57444,215.0147,0.02593,367.522,580.977,-9.43555
21091,9.99853,334.5752,3.88562,233.9135,0.01661,367.522,381.476,-8.15418
21148,9.99853,338.796,3.82692,209.977,0.01823,367.522,181.975,-6.73922
21205,9.99814,358.547,3.449,179.138,0.01925,371.046,682.466,-10.17657
21262,9.99825,334.9775,3.92107,210.184,0.01866,371.046,482.965,-8.82591
21319,9.99836,336.773,3.87665,209.935,0.01847,371.046,283.464,-7.42229
21376,9.99857,360.705,3.37,196.252,0.01717,371.046,83.96288,-6.28715
21433,9.99879,341.166,3.74733,222.063,0.01688,374.523,584.454,-9.57513
21490,9.99893,336.661,3.84694,226.758,0.01696,374.523,384.953,-8.25537
21547,9.99853,331.367,4.00171,215.837,0.01854,374.523,185.499,-6.83296
21604,9.99818,343.348,3.74047,199.3255,0.01877,378.047,685.9905,-10.27125
21661,9.99797,354.095,3.49463,202.281,0.01728,378.047,486.489,-8.92123
21718,9.99836,334.501,3.92861,212.313,0.0185,378.047,286.988,-7.52222
21775,9.99851,337.788,3.86708,202.849,0.01906,378.047,87.48713,-6.36924
21832,9.9984,339.717,3.78463,220.2952,0.01718,381.524,587.978,-9.67481
21889,9.99879,335.958,3.87416,221.329,0.0175,381.524,388.477,-8.35519
21946,9.99835,328.657,4.06078,221.629,0.01832,381.524,188.976,-6.9181
22003,9.99854,362.691,3.35137,185.33,0.01808,385.0005,689.467,-10.35024
22060,9.99858,337.951,3.82821,219.744,0.01742,385.0005,489.966,-9.02036
22117,9.99866,341.1,3.75896,216.486,0.01736,385.0005,290.465,-7.6203
22174,9.99874,293.037,5.2435,215.331,0.02435,385.0005,90.96375,-6.46204
22231,9.99861,343.66,3.69286,220.066,0.01678,388.525,591.455,-9.76583
22288,9.99863,338.267,3.82663,216.574,0.01767,388.525,391.954,-8.44725
22345,9.99835,346.0334,3.66457,205.978,0.01779,388.525,192.453,-6.98789
22402,9.99828,352.331,3.51789,210.292,0.01673,392.001,692.991,-10.47436
22459,9.99802,348.386,3.62877,197.351,0.01839,392.001,493.49,-9.12428
22516,9.99874,342.611,3.70775,225.513,0.01644,392.001,293.989,-7.7297
22573,9.99869,353.238,3.51667,200.395,0.01755,392.001,94.488,-6.52463
22630,9.99822,360.288,3.37567,197.656,0.01708,395.526,594.979,-9.83332
22687,9.99872,335.115,3.91862,209.81,0.01868,395.526,395.478,-8.54855
22744,9.99866,335.154,3.86889,235.383,0.01644,395.526,195.977,-7.10504
22801,9.99868,356.622,3.42699,211.152,0.01623,399.002,696.468,-10.57323
22858,9.99835,341.549,3.72533,229.667,0.01622,399.002,496.967,-9.24388
22915,9.99848,344.12,3.67895,222.007,0.01657,399.002,297.466,-7.83891
22972,9.99842,332.562,3.96893,216.687,0.01832,399.002,97.96463,-6.63293
23029,9.99822,347.692,3.65426,192.861,0.01895,402.5265,598.456,-9.91304
23086,9.99872,332.374,3.93927,234.823,0.01678,402.5265,398.955,-8.63201
23143,9.99842,339.025,3.78369,230.272,0.01643,402.5265,199.4535,-7.20768
23200,9.99864,341.118,3.75013,221.076,0.01696,402.5265,0,-6.12742
23257,9.99844,331.221,3.99385,221.421,0.01804,406.003,500.491,-9.35131
23314,9.99868,345.433,3.63888,228.437,0.01593,406.003,300.99,-7.9332
23371,9.99864,351.928,3.52079,213.7182,0.01647,406.003,101.489,-6.68471
23428,9.99833,344.9881,3.69311,203.677,0.01813,409.527,601.98,-9.98511
23485,9.99878,335.213,3.85756,241.513,0.01597,409.527,402.479,-8.71513
23542,9.99843,357.191,3.44267,195.587,0.0176,409.527,202.978,-7.27092
23599,9.99858,339.323,3.79567,219.445,0.0173,409.527,3.47663,-6.22486
23656,9.99896,337.367,3.81805,233.634,0.01634,413.004,503.968,-9.44126
23713,9.99836,349.875,3.57114,210.156,0.01699,413.004,304.467,-7.99555
23770,9.99807,336.276,3.90721,201.749,0.01937,413.004,104.9655,-6.80072
23827,9.99851,335.123,3.90038,218.464,0.01785,416.528,605.457,-10.06415
23884,9.9986,327.925,4.06896,227.245,0.01791,416.528,405.9555,-8.81217
23941,9.99873,348.924,3.58627,213.459,0.0168,416.528,206.454,-7.35999
23998,9.99882,342.213,3.70916,230.281,0.01611,416.528,6.95325,-6.33112
24055,9.99874,335.117,3.8753,232.178,0.01669,420.005,507.492,-9.52906
24112,9.99839,334.51,3.94645,204.21,0.01933,420.005,307.991,-8.08438
24169,9.99834,341.8829,3.77308,200.313,0.01884,420.005,108.49,-6.88691
24226,9.9982,349.686,3.60848,193.265,0.01867,423.529,608.981,-10.15196
24283,9.9987,337.523,3.82371,228.002,0.01677,423.529,409.48,-8.89609
24340,9.9984,358.912,3.41737,190.41,0.01795,423.529,209.979,-7.43216
24397,9.99825,348.199,3.63815,194.968,0.01866,423.529,10.4775,-6.38706
24454,9.99835,342.079,3.71377,229.234,0.0162,427.006,510.969,-9.61136
24511,9.99853,348.325,3.60937,207.946,0.01736,427.006,311.4675,-8.1746
24568,9.99873,328.025,4.10485,209.624,0.01958,427.006,111.966,-6.97749
24625,9.99861,339.349,3.80787,212.776,0.0179,430.53,612.4575,-10.25074
24682,9.99867,326.49,4.11656,222.91,0.01847,430.53,412.956,-8.97979
24739,9.99834,335.47,3.89228,218.135,0.01784,430.53,213.455,-7.53573
24796,9.99868,339.05,3.81227,214.224,0.0178,430.53,13.95413,-6.48428
24853,9.99847,316.123,4.48315,198.538,0.02258,434.007,514.493,-9.68101
24910,9.99876,351.7,3.51907,217.744,0.01616,434.007,314.992,-8.26611
24967,9.99882,336.734,3.87927,209.255,0.01854,434.007,115.491,-7.07058
25024,9.99837,364.569,3.28695,200.412,0.0164,437.531,615.982,-10.326
25081,9.99879,332.641,3.93164,235.345,0.01671,437.531,416.481,-9.06968
25138,9.99821,353.124,3.50409,208.512,0.01681,437.531,216.9795,-7.60352
25195,9.99844,346.224,3.71407,182.148,0.02039,437.531,17.47838,-6.6108
25252,9.99793,355.419,3.48239,194.094,0.01794,441.0075,517.9695,-9.75638
25309,9.99901,346.571,3.62794,219.604,0.01652,441.0075,318.468,-8.38455
25366,9.99908,335.302,3.86588,235.122,0.01644,441.0075,118.967,-7.1903
25423,9.99874,333.576,3.96232,207.795,0.01907,444.532,619.458,-10.446
25480,9.99851,338.412,3.84936,203.8774,0.01888,444.532,419.957,-9.15497
25537,9.99863,336.102,3.90344,205.408,0.019,444.532,220.456,-7.70171
25594,9.9987,337.393,3.84681,217.167,0.01771,444.532,20.955,-6.72714
25651,9.99827,339.302,3.84011,198.294,0.01937,448.008,521.494,-9.85168
25708,9.99886,344.53,3.67651,218.102,0.01686,448.008,321.993,-8.48479
25765,9.99911,358.055,3.39141,215.39,0.01575,448.008,122.4915,-7.28087
25822,9.99856,342.994,3.74201,202.54,0.01848,451.533,622.983,-10.53614
25879,9.99847,334.556,3.91437,218.571,0.01791,451.533,423.4815,-9.25891
25936,9.99869,357.852,3.42416,198.25,0.01727,451.533,223.98,-7.78106
25993,9.99881,346.957,3.62641,215.4308,0.01683,451.533,24.47925,-6.81285
26050,9.99848,339.618,3.80693,209.996,0.01813,455.009,524.97,-9.94638
26107,9.99892,364.82,3.27091,207.605,0.01576,455.009,325.469,-8.55459
26164,9.99859,336.066,3.83352,243.578,0.01574,455.009,125.968,-7.39084
26221,9.99879,341.808,3.75323,210.7786,0.01781,458.5335,626.459,-10.62758
26278,9.9988,330.2024,4.04294,211.105,0.01915,458.5335,426.958,-9.38037
26335,9.99869,340.064,3.75361,233.7294,0.01606,458.5335,227.457,-7.93483
26392,9.99879,351.653,3.51508,220.895,0.01591,458.5335,27.95588,-6.8717
26449,9.99865,347.678,3.61431,213.1447,0.01696,462.01,528.495,-10.05099
26506,9.99859,340.996,3.73705,230.438,0.01622,462.01,328.9935,-8.68417
26563,9.99852,346.4355,3.62684,221.95,0.01634,462.01,129.492,-7.45083
26620,9.99834,349.052,3.62483,192.299,0.01885,465.534,629.9835,-10.74058
26677,9.99838,330.892,4.02948,208.9457,0.01928,465.534,430.482,-9.49268
26734,9.9981,344.174,3.734,193.558,0.01929,465.534,230.981,-8.03182
26791,9.99844,338.595,3.84876,202.126,0.01904,465.534,31.48013,-6.95009
26848,9.99853,361.7299,3.36975,185.7337,0.01814,469.011,531.971,-10.14386
26905,9.99859,345.499,3.64411,224.221,0.01625,469.011,332.47,-8.77858
26962,9.99829,355.9475,3.45598,202.257,0.01709,469.011,132.969,-7.51524
27019,9.99843,347.029,3.65566,199.225,0.01835,472.535,633.46,-10.83117
27076,9.99828,317.713,4.39416,212.0737,0.02072,472.535,433.959,-9.58222
27133,9.99863,338.7926,3.84298,202.572,0.01897,472.535,234.458,-8.12606
27190,9.99856,335.297,3.90264,215.183,0.01814,472.535,34.95675,-7.05638
27247,9.99853,330.841,4.01284,217.061,0.01849,476.012,535.4955,-10.28695
27304,9.99865,343.732,3.67293,231.179,0.01589,476.012,335.994,-8.91721
27361,9.99825,327.936,4.12155,203.776,0.02023,476.012,136.493,-7.6242
27418,9.99855,332.737,3.99729,202.144,0.01977,479.536,636.984,-10.9449
27475,9.99818,347.178,3.64551,202.477,0.018,479.536,437.483,-9.66752
27532,9.99842,351.25,3.55872,200.759,0.01773,479.536,237.982,-8.22344
27589,9.9984,344.922,3.68332,209.408,0.01759,479.536,38.481,-7.17346
27646,9.99881,319.97,4.31467,216.901,0.01989,483.013,538.972,-10.39794
27703,9.99868,332.968,3.95976,216.1362,0.01832,483.013,339.471,-9.0173
27760,9.99831,323.988,4.27361,189.672,0.02253,483.013,139.97,-7.71128
27817,9.99834,325.5468,4.16375,213.391,0.01951,486.537,640.461,-11.06781
27874,9.99834,341.594,3.7274,227.765,0.01637,486.537,440.96,-9.79696
27931,9.99839,349.183,3.63792,185.353,0.01963,486.537,241.459,-8.29528
27988,9.99806,347.256,3.64607,201.302,0.01811,486.537,41.95763,-7.25345
28045,9.99858,340.601,3.7857,208.846,0.01813,490.014,542.496,-10.51757
28102,9.99881,333.524,3.97142,204.459,0.01942,490.014,342.995,-9.10499
28159,9.99824,333.421,3.96143,209.87,0.01888,490.014,143.494,-7.81042
28216,9.99791,323.152,4.2083,223.054,0.01887,493.538,643.985,-11.16752
28273,9.99847,340.919,3.71661,245.061,0.01517,493.538,444.484,-9.89607
28330,9.99839,323.445,4.23081,210.181,0.02013,493.538,244.983,-8.40449
28387,9.99867,333.608,3.9085,234.647,0.01666,493.538,45.48188,-7.35468
28444,9.99853,345.454,3.68474,202.566,0.01819,497.0145,545.973,-10.63323
28501,9.9982,323.805,4.214,212.779,0.0198,497.0145,346.472,-9.20638
28558,9.99841,345.363,3.69619,198.116,0.01866,497.0145,146.971,-7.90402
28615,9.9988,337.625,3.86611,205.148,0.01885,500.539,647.462,-11.27344
28672,9.99869,353.608,3.48696,212.691,0.01639,500.539,447.961,-9.96884
28729,9.9982,360.136,3.3908,191.207,0.01773,500.539,248.46,-8.49235
28786,9.9984,331.828,3.99503,213.346,0.01873,500.539,48.9585,-7.46608
28843,9.99861,336.894,3.86959,211.929,0.01826,504.015,549.497,-10.73745
28900,9.99873,334.574,3.90639,222.485,0.01756,504.015,349.996,-9.31067
28957,9.99853,333.7957,3.97322,200.727,0.01979,504.015,150.495,-8.01789
29014,9.99865,337.499,3.85395,212.287,0.01815,507.54,650.986,-11.39634
29071,9.99875,343.348,3.72075,208.929,0.01781,507.54,451.485,-10.07389
29128,9.99817,349.016,3.60896,200.1643,0.01803,507.54,251.984,-8.62045
29185,9.99864,331.92,3.97457,222.069,0.0179,507.54,52.48275,-7.55198
29242,9.99836,355.8761,3.46914,196.037,0.0177,511.016,552.974,-10.85875
29299,9.99873,358.7196,3.39417,205.2497,0.01654,511.016,353.473,-9.40234
29356,9.99848,331.4,4.02963,203.282,0.01982,511.016,153.972,-8.11984
29413,9.99856,343.7143,3.68383,224.6323,0.0164,514.5405,654.463,-11.53305
29470,9.99863,331.359,3.99121,221.005,0.01806,514.5405,454.962,-10.16789
29527,9.99846,331.817,4.00245,210.149,0.01905,514.5405,255.4605,-8.76423
29584,9.99844,364.009,3.29743,200.609,0.01644,514.5405,55.95938,-7.61759
29641,9.99824,344.742,3.70528,200.549,0.01848,518.017,556.498,-11.00097
29698,9.99835,326.344,4.14592,211.62,0.01959,518.017,356.997,-9.54698
29755,9.99845,336.122,3.87086,220.8602,0.01753,518.017,157.496,-8.22373
29812,9.9986,338.809,3.79073,229.187,0.01654,521.541,657.987,-11.66951
29869,9.99858,337.22,3.85596,214.659,0.01796,521.541,458.486,-10.30857
29926,9.99851,319.971,4.31587,216.357,0.01995,521.541,258.985,-8.88723
29983,9.99845,332.5698,3.9731,214.618,0.01851,521.541,59.48363,-7.75764
30040,9.99842,337.8601,3.86648,202.3085,0.01911,525.018,559.975,-11.10773
30097,9.99844,338.657,3.85307,199.57,0.01931,525.018,360.474,-9.65645
30154,9.99835,334.706,3.90667,220.5413,0.01771,525.018,160.9725,-8.33927
30211,9.99842,339.955,3.7746,222.712,0.01695,528.542,661.464,-11.80062
30268,9.99815,339.743,3.79583,213.97,0.01774,528.542,461.9625,-10.41233
30325,9.99825,331.42,4.02063,206.752,0.01945,528.542,262.461,-8.97611
30382,9.99841,333.347,3.97495,204.825,0.01941,528.542,62.96025,-7.85602
30439,9.99829,343.431,3.7122,212.259,0.01749,532.019,563.499,-11.18579
30496,9.99864,329.979,4.05013,210.521,0.01924,532.019,363.998,-9.76856
30553,9.99875,350.439,3.52643,230.5473,0.0153,532.019,164.497,-8.44444
30610,9.99896,342.508,3.72928,214.747,0.01737,535.543,664.988,-11.93494
30667,9.99881,296.622,5.05753,229.042,0.02208,535.543,465.487,-10.52112
30724,9.99822,322.764,4.23093,218.026,0.01941,535.543,265.986,-9.0899
30781,9.99815,344.31,3.69979,208.121,0.01778,535.543,66.4845,-7.97857
30838,9.99876,348.553,3.57678,224.103,0.01596,539.02,566.976,-11.29189
30895,9.99826,350.494,3.5902,193.431,0.01856,539.02,367.4745,-9.8913
30952,9.99843,342.888,3.71597,217.045,0.01712,539.02,167.973,-8.56485
31009,9.99861,343.328,3.71868,210.201,0.01769,542.544,668.4645,-12.05459
31066,9.9986,333.832,3.95437,208.375,0.01898,542.544,468.963,-10.62824
31123,9.99869,338.452,3.80172,227.773,0.01669,542.544,269.462,-9.20642
31180,9.99867,347.129,3.62079,216.425,0.01673,542.544,69.96113,-8.10824
31237,9.99868,343.731,3.68654,222.823,0.01654,546.021,570.5,-11.41153
31294,9.99845,347.779,3.64054,198.342,0.01835,546.021,370.999,-10.00266
31351,9.99882,329.479,4.01303,235.183,0.01706,546.021,171.498,-8.68404
31408,9.99846,342.926,3.70861,220.696,0.0168,549.545,671.989,-12.16318
31465,9.99858,343.142,3.71533,214.227,0.01734,549.545,472.488,-10.72681
31522,9.99847,327.358,4.12475,208.867,0.01975,549.545,272.9865,-9.31485
31579,9.99861,342.9982,3.69762,226.224,0.01634,549.545,73.48538,-8.19158
31636,9.99799,340.871,3.77055,213.092,0.01769,553.0215,573.9765,-11.52008
31693,9.99841,338.485,3.82899,212.6444,0.01801,553.0215,374.475,-10.1009
31750,9.99854,339.185,3.77876,230.974,0.01636,553.0215,174.974,-8.77114
31807,9.99878,339.179,3.81061,213.5,0.01785,556.546,675.465,-12.27431
31864,9.99881,337.967,3.8153,226.693,0.01683,556.546,475.964,-10.85382
31921,9.99855,323.435,4.21866,215.242,0.0196,556.546,276.463,-9.40478
31978,9.99846,344.798,3.66048,223.83,0.01635,556.546,76.962,-8.26767
32035,9.99855,362.156,3.3382,197.932,0.01687,560.022,577.453,-11.6084
32092,9.99856,341.519,3.77362,204.1169,0.01849,560.022,378,-10.21867
32149,9.99854,350.177,3.52356,236.52,0.0149,560.022,178.4985,-8.86403
32206,9.99881,335.432,3.89084,219.453,0.01773,563.547,678.99,-12.37912
32263,9.99855,342.958,3.70073,224.894,0.01646,563.547,479.4885,-10.99281
32320,9.9985,325.728,4.15827,213.619,0.01947,563.547,279.987,-9.51418
32377,9.99864,326.183,4.19207,195.837,0.02141,563.547,80.48625,-8.37309
32434,9.99867,345.271,3.65427,221.207,0.01652,567.023,580.977,-11.72684
32491,9.99897,351.849,3.51315,219.525,0.016,567.023,381.476,-10.33775
32548,9.99833,341.264,3.71581,240.076,0.01548,567.023,181.975,-8.96735
32605,9.99856,341.644,3.75006,214.37,0.01749,570.5475,682.466,-12.48237
32662,9.99861,341.315,3.75037,218.368,0.01717,570.5475,482.965,-11.09452
32719,9.99837,331.319,4.00986,212.643,0.01886,570.5475,283.464,-9.61583
32776,9.99883,342.958,3.71568,216.399,0.01717,570.5475,83.96288,-8.48358
32833,9.9984,343.0545,3.69941,224.3207,0.01649,574.024,584.454,-11.8013
32890,9.9982,342.016,3.72566,222.961,0.01671,574.024,384.953,-10.4874
32947,9.99816,333.117,3.93709,225.51,0.01746,574.024,185.499,-9.05384
33004,9.99859,343.35,3.70738,215.927,0.01717,577.501,685.9905,-12.59492
33061,9.99887,342.844,3.7329,208.758,0.01788,577.501,486.489,-11.19505
33118,9.99856,332.145,3.99405,210.111,0.01901,577.501,286.988,-9.72818
33175,9.99839,323.579,4.21763,213.945,0.01971,577.501,87.48713,-8.59862
33232,9.99914,339.727,3.77773,224.18,0.01685,581.025,587.978,-11.88939
33289,9.99834,337.758,3.84105,215.477,0.01783,581.025,388.477,-10.60455
33346,9.9986,338.173,3.84136,210.355,0.01826,581.025,188.976,-9.13514
33403,9.99837,349.51,3.58273,208.161,0.01721,584.502,689.467,-12.68951
33460,9.99837,360.639,3.38818,187.443,0.01808,584.502,489.966,-11.27717
33517,9.99847,343.063,3.70679,219.924,0.01685,584.502,290.465,-9.8432
33574,9.99782,334.322,3.93342,212.075,0.01855,584.502,90.96375,-8.70762
33631,9.9985,339.447,3.79977,215.697,0.01762,588.026,591.455,-12.027
33688,9.9984,362.745,3.32837,196.898,0.0169,588.026,391.954,-10.69218
33745,9.99849,336.076,3.87135,221.212,0.0175,588.026,192.453,-9.22882
33802,9.99845,326.0658,4.15117,212.656,0.01952,591.5025,692.991,-12.76422
33859,9.99796,343.878,3.73085,197.994,0.01884,591.5025,493.49,-11.3649
33916,9.99858,341.409,3.73078,228.389,0.01634,591.5025,293.989,-9.94759
33973,9.99767,340.074,3.77064,223.18,0.0169,591.5025,94.488,-8.80531
34030,9.99826,344.2823,3.68482,216.465,0.01702,595.027,594.979,-12.12001
34087,9.99871,332.218,3.98426,213.715,0.01864,595.027,395.478,-10.79313
34144,9.99831,344.968,3.71013,195.921,0.01894,595.027,195.977,-9.32727
34201,9.99786,349.303,3.57968,212.277,0.01686,598.503,696.468,-12.83903
34258,9.99826,333.529,3.96797,205.761,0.01928,598.503,496.967,-11.45884
34315,9.99877,322.713,4.24884,211.396,0.0201,598.503,297.466,-10.07017
34372,9.99865,338.651,3.80838,221.336,0.01721,598.503,97.96463,-8.89058
34429,9.99815,345.694,3.6931,195.978,0.01884,602.028,598.456,-12.20884
34486,9.99835,339.691,3.8148,205.374,0.01857,602.028,398.955,-10.87749
34543,9.99838,347.087,3.65017,201.239,0.01814,602.028,199.4535,-9.4236
34600,9.9989,352.255,3.50542,218.953,0.01601,602.028,0,-8.35537
34657,9.99859,345.485,3.6813,203.917,0.01805,605.504,500.491,-11.56341
34714,9.99889,321.473,4.30719,203.074,0.02121,605.504,300.99,-10.17267
34771,9.99838,331.009,4.01331,214.766,0.01869,605.504,101.489,-8.97724
34828,9.99867,331.654,3.97973,222.932,0.01785,609.0285,601.98,-12.30249
34885,9.99828,358.571,3.39571,206.02,0.01648,609.0285,402.479,-10.98979
34942,9.99807,327.85,4.0753,224.973,0.01811,609.0285,202.978,-9.52814
34999,9.99882,341.446,3.75711,213.182,0.01762,609.0285,3.47663,-8.46053
35056,9.99843,342.821,3.7161,217.838,0.01706,612.505,503.968,-11.66984
35113,9.99826,336.89,3.88605,204.295,0.01902,612.505,304.467,-10.2659
35170,9.99851,338.2224,3.80191,230.85,0.01647,612.505,104.9655,-9.07669
35227,9.99871,345.795,3.65166,215.883,0.01691,616.029,605.457,-12.38988
35284,9.99818,349.645,3.59495,200.195,0.01796,616.029,405.9555,-11.10216
35341,9.99851,341.34,3.73344,227.732,0.01639,616.029,206.454,-9.64011
35398,9.99853,339.7,3.79515,214.945,0.01766,616.029,6.95325,-8.54107
35455,9.99845,344.149,3.69577,212.212,0.01742,619.506,507.492,-11.78375
35512,9.99861,338.376,3.84243,207.488,0.01852,619.506,307.991,-10.36941
35569,9.99876,338.221,3.80489,229.179,0.0166,619.506,108.49,-9.18822
35626,9.9986,336.546,3.89188,205.594,0.01893,623.03,608.981,-12.47003
35683,9.9981,354.667,3.48128,203.024,0.01715,623.03,409.48,-11.19447
35740,9.99849,341.011,3.80571,195.243,0.01949,623.03,209.979,-9.73056
35797,9.99835,341.7934,3.72754,224.921,0.01657,623.03,10.4775,-8.61541
35854,9.99831,347.367,3.66437,191.684,0.01912,626.507,510.969,-11.88941
35911,9.99847,343.716,3.69596,217.551,0.01699,626.507,311.4675,-10.47175
35968,9.9985,352.27,3.51232,214.394,0.01638,626.507,111.966,-9.2515
36025,9.99843,330.287,4.01422,223.386,0.01797,630.031,612.4575,-12.58438
36082,9.99853,329.524,4.09736,196.563,0.02085,630.031,412.956,-11.26687
36139,9.99842,334.832,3.91609,214.297,0.01827,630.031,213.455,-9.82771
36196,9.99866,300.201,4.96933,215.117,0.0231,630.031,13.95413,-8.73638
36253,9.99832,358.728,3.43953,181.686,0.01893,633.508,514.493,-11.95486
36310,9.99851,328.926,4.08388,208.152,0.01962,633.508,314.992,-10.56683
36367,9.99847,335.664,3.92293,201.718,0.01945,633.508,115.491,-9.33882
36424,9.9985,325.455,4.1652,213.884,0.01947,637.032,615.982,-12.7222
36481,9.99847,340.078,3.80019,207.887,0.01828,637.032,416.481,-11.37743
36538,9.99854,338.414,3.80428,226.782,0.01678,637.032,216.9795,-9.90779
36595,9.99845,334.321,3.92187,217.776,0.01801,637.032,17.47838,-8.86897
36652,9.99845,341.107,3.77513,208.077,0.01814,640.509,517.9695,-12.06869
36709,9.99849,349.0149,3.59465,207.6388,0.01731,640.509,318.468,-10.65531
36766,9.99842,341.098,3.78765,202.243,0.01873,640.509,118.967,-9.42967
36823,9.99838,330.775,4.03884,206.283,0.01958,644.033,619.458,-12.8312
36880,9.99881,346.34,3.6317,220.381,0.01648,644.033,419.957,-11.49016
36937,9.99862,332.942,3.99029,202.836,0.01967,644.033,220.456,-9.99541
36994,9.99848,338.6518,3.80928,220.789,0.01725,644.033,20.955,-8.97752
37051,9.9984,333.227,3.99906,196.335,0.02037,647.5095,521.494,-12.15208
37108,9.99882,328.7106,4.09035,207.94,0.01967,647.5095,321.993,-10.73799
37165,9.99898,338.299,3.81753,221.044,0.01727,647.5095,122.4915,-9.54544
37222,9.99818,333.952,3.94945,209.121,0.01889,651.034,622.983,-12.92546
37279,9.99888,347.071,3.60763,225.21,0.01602,651.034,423.4815,-11.59115
37336,9.99848,325.757,4.14194,220.414,0.01879,651.034,223.98,-10.09853
37393,9.998,363.183,3.2983,209.971,0.01571,651.034,24.47925,-9.04686
37450,9.99857,339.43,3.83267,200.217,0.01914,654.51,524.97,-12.24141
37507,9.99845,331.367,4.01853,208.283,0.01929,654.51,325.469,-10.85713
37564,9.99895,362.182,3.31604,211.276,0.0157,654.51,125.968,-9.63173
37621,9.99845,331.865,3.99993,210.719,0.01898,658.035,626.459,-13.0216
37678,9.99786,338.9497,3.81592,213.419,0.01788,658.035,426.958,-11.68045
37735,9.99822,344.003,3.71576,203.7377,0.01824,658.035,227.457,-10.18901
37792,9.99829,339.685,3.79838,213.421,0.0178,658.035,27.95588,-9.12434
37849,9.99858,342.496,3.74713,205.706,0.01822,661.511,528.495,-12.36021
37906,9.9983,325.404,4.23184,189.922,0.02228,661.511,328.9935,-10.96315
37963,9.99852,349.844,3.54106,229.168,0.01545,661.511,129.492,-9.74692
38020,9.99867,348.928,3.6072,202.122,0.01785,665.0355,629.9835,-13.10779
38077,9.99841,340.891,3.76752,214.511,0.01756,665.0355,430.482,-11.77478
38134,9.99807,341.254,3.74328,223.019,0.01678,665.0355,230.981,-10.29596
38191,9.99862,334.324,3.9418,208.377,0.01892,665.0355,31.48013,-9.20613
38248,9.99861,362.275,3.30783,215.531,0.01535,668.512,531.971,-12.45682
38305,9.99836,324.8593,4.18697,211.723,0.01978,668.512,332.47,-11.09121
38362,9.99845,340.184,3.79869,207.376,0.01832,668.512,132.969,-9.79707
38419,9.99857,333.896,3.97075,200.691,0.01979,672.036,633.46,-13.19761
38476,9.99863,343.231,3.72956,205.87,0.01812,672.036,433.959,-11.86936
38533,9.99828,340.184,3.74826,235.219,0.01594,672.036,234.458,-10.38936
38590,9.99844,327.6879,4.07841,225.66,0.01807,672.036,34.95675,-9.29424
38647,9.99848,341.307,3.73823,225.3348,0.01659,675.513,535.4955,-12.58788
38704,9.99847,339.34,3.80003,216.89,0.01752,675.513,335.994,-11.19135
38761,9.99864,354.7138,3.49543,195.168,0.01791,675.513,136.493,-9.87666
38818,9.9984,328.926,4.08882,206.099,0.01984,679.037,636.984,-13.28184
38875,9.99815,342.451,3.74236,208.489,0.01795,679.037,437.483,-11.95372
38932,9.99866,334.08,3.9036,230.687,0.01692,679.037,237.982,-10.50317
38989,9.9984,345.25,3.65971,218.238,0.01677,679.037,38.481,-9.38934
39046,9.99834,352.133,3.54183,199.579,0.01775,682.514,538.972,-12.66914
39103,9.99873,326.157,4.14181,215.6364,0.01921,682.514,339.471,-11.29713
39160,9.9985,339.212,3.80866,214.026,0.0178,682.514,139.97,-9.9918
39217,9.99821,342.2126,3.75018,207.408,0.01808,686.038,640.461,-13.37585
39274,9.99837,354.503,3.4957,197.253,0.01772,686.038,440.96,-12.04446
39331,9.99881,322.818,4.24461,211.887,0.02003,686.038,241.459,-10.60453
39388,9.99828,335.987,3.89603,210.024,0.01855,686.038,41.95763,-9.51351
39445,9.99827,343.233,3.75354,194.7415,0.01927,689.515,542.496,-12.76279
39502,9.99854,331.771,4.01296,206.145,0.01947,689.515,342.995,-11.3775
39559,9.99854,342.602,3.70335,228.271,0.01622,689.515,143.494,-10.095
39616,9.99809,337.6262,3.88072,198.6294,0.01954,693.039,643.985,-13.47266
39673,9.99797,340.876,3.81405,193.045,0.01976,693.039,444.484,-12.17238
39730,9.99868,322.763,4.23968,214.49,0.01977,693.039,244.983,-10.72573
39787,9.9983,356.623,3.46871,188.486,0.0184,693.039,45.48188,-9.59068
39844,9.9985,333.309,4.00189,194.458,0.02058,696.516,545.973,-12.85155
39901,9.99827,335.408,3.91599,207.5495,0.01887,696.516,346.472,-11.47358
39958,9.99874,338.514,3.80038,227.703,0.01669,696.516,146.971,-10.18589
40000,9.99863,340.539,3.75599,225.524,0.01665,696.516,0,-9.39701