File: data/nanoindent_maps/Duplex Steel 1um.csv
Index,Load,Depth,HARDNESS,MODULUS,H/E,X Position,Y Position,Z Position
Integer,mN,nm,GPa,GPa,None,µm,µm,µm
1,1.24953,110.907,3.77186,189.576,0.0199,0,198.977,-2.40336
58,1.24936,111.491,3.77194,174.616,0.0216,0,141.97,-1.96891
115,1.24942,105.52,4.21396,178.703,0.02358,0,84.963,-1.65577
172,1.24976,113.342,3.63933,177.616,0.02049,0,27.95587,-1.30631
229,1.24976,101.89,4.44831,202.88,0.02193,1.00012,170.974,-2.14976
286,1.2496,103.493,4.32792,196.022,0.02208,1.00012,113.967,-1.72773
343,1.24961,95.43142,5.05824,212.539,0.0238,1.00012,56.9595,-1.36928
400,1.24923,121.514,3.19181,161.941,0.01971,1.00012,0,-0.92723
457,1.24935,104.243,4.29396,186.4733,0.02303,2.00025,142.97,-1.75791
514,1.24956,102.118,4.50715,180.325,0.02499,2.00025,85.96313,-1.43076
571,1.24966,109.827,3.85402,187.517,0.02055,2.00025,28.956,-1.07541
628,1.24976,119.634,3.27776,169.643,0.01932,3.00037,171.974,-1.9267
685,1.24951,117.9115,3.42385,152.749,0.02241,3.00037,114.967,-1.50138
742,1.24945,102.613,4.44012,185.774,0.0239,3.00037,57.95962,-1.16961
799,1.24958,103.8114,4.33323,186.14,0.02328,3.00037,0.9525,-0.75626
856,1.24952,106.459,4.17102,169.607,0.02459,4.0005,143.97,-1.58807
913,1.24963,99.41341,4.73463,188.426,0.02513,4.0005,86.96325,-1.2794
970,1.24961,120.85,3.21462,167.8399,0.01915,4.0005,29.95613,-0.90645
1027,1.24981,103.752,4.31136,194.47,0.02217,5.00063,172.974,-1.80072
1084,1.24925,107.77,4.01156,185.3262,0.02165,5.00063,115.967,-1.38082
1141,1.24963,94.75144,5.1542,207.472,0.02484,5.00063,58.95975,-1.04211
1198,1.24958,112.387,3.73918,165.51,0.02259,5.00063,1.95263,-0.64305
1255,1.24969,94.44281,5.14164,220.027,0.02337,6.00075,144.9705,-1.48746
1312,1.24948,101.86,4.5337,179.6376,0.02524,6.00075,87.96337,-1.18999
1369,1.24944,104.131,4.25042,203.622,0.02087,6.00075,30.95625,-0.8199
1426,1.24964,104.112,4.28687,192.296,0.02229,7.00087,173.974,-1.71403
1483,1.24947,104.393,4.277,187.855,0.02277,7.00087,116.967,-1.29452
1540,1.24955,101.71,4.48924,195.104,0.02301,7.00087,59.95988,-0.96618
1597,1.24974,99.73761,4.67069,196.711,0.02374,7.00087,2.95275,-0.5771
1654,1.24943,110.0443,3.8795,173.327,0.02238,8.001,145.971,-1.4122
1711,1.24951,95.93929,4.97632,219.989,0.02262,8.001,88.9635,-1.13146
1768,1.24951,107.149,4.0227,198.599,0.02026,8.001,31.95638,-0.74911
1825,1.24961,102.06,4.37106,225.305,0.0194,9.00112,174.974,-1.65711
1882,1.24957,101.933,4.4594,197.969,0.02253,9.00112,117.967,-1.23535
1939,1.24964,100.551,4.62175,188.758,0.02449,9.00112,60.96,-0.9191
1996,1.24956,103.414,4.36272,187.601,0.02326,9.00112,3.95288,-0.53305
2053,1.2495,118.635,3.36128,159.187,0.02112,10.00125,146.971,-1.3528
2110,1.24953,86.9476,6.38077,180.321,0.03539,10.00125,89.96363,-1.07718
2167,1.24973,102.18,4.44995,194.307,0.0229,10.00125,32.9565,-0.70393
2224,1.24954,104.922,4.16268,212.421,0.0196,11.00137,175.974,-1.61349
2281,1.24938,113.93,3.60802,174.498,0.02068,11.00137,118.967,-1.1844
2338,1.24936,99.88383,4.65964,195.393,0.02385,11.00137,61.96013,-0.88086
2395,1.24977,101.986,4.47936,190.982,0.02345,11.00137,4.953,-0.5086
2452,1.24933,107.537,4.02788,185.959,0.02166,12.0015,147.971,-1.33516
2509,1.24956,99.4444,4.67744,202.597,0.02309,12.0015,90.96375,-1.05931
2566,1.24963,103.065,4.41022,183.134,0.02408,12.0015,33.95663,-0.69009
2623,1.24993,103.255,4.31167,208.938,0.02064,13.00162,176.9745,-1.58898
2680,1.24939,126.1322,2.97256,155.6159,0.0191,13.00162,119.967,-1.14468
2737,1.24952,101.567,4.48854,199.136,0.02254,13.00162,62.96025,-0.84561
2794,1.24958,103.3896,4.36254,188.274,0.02317,13.00162,5.95312,-0.49077
2851,1.24929,102.314,4.52733,171.195,0.02645,14.00175,148.971,-1.3174
2908,1.24954,100.907,4.52975,205.206,0.02207,14.00175,91.96388,-1.04416
2965,1.24947,107.351,4.09064,171.712,0.02382,14.00175,34.95675,-0.65319
3022,1.24946,102.745,4.36617,204.56,0.02134,15.00188,177.975,-1.5756
3079,1.24943,104.969,4.21355,192.48,0.02189,15.00188,120.9675,-1.14517
3136,1.24962,102.219,4.38845,213.167,0.02059,15.00188,63.96038,-0.82589
3193,1.24947,103,4.34681,203.627,0.02135,15.00188,6.95325,-0.48191
3250,1.24926,105.55,4.18143,187.308,0.02232,16.002,149.971,-1.30251
3307,1.24944,109.002,3.93416,180.394,0.02181,16.002,92.964,-1.02955
3364,1.24942,104.304,4.27699,190.067,0.0225,16.002,35.95687,-0.63021
3421,1.24962,102.455,4.40532,200.3028,0.02199,17.00212,178.975,-1.57128
3478,1.24948,115.756,3.51297,166.977,0.02104,17.00212,121.968,-1.12515
3535,1.24937,103.181,4.33112,203.506,0.02128,17.00212,64.9605,-0.82375
3592,1.24958,101.933,4.42985,207.433,0.02136,17.00212,7.95338,-0.47708
3649,1.24951,101.38,4.47147,210.081,0.02128,18.00225,150.971,-1.29416
3706,1.24948,103.7096,4.28182,205.109,0.02088,18.00225,93.96413,-1.03283
3763,1.24926,122.482,3.15397,156.555,0.02015,18.00225,36.957,-0.59995
3820,1.24921,110.372,3.76214,209.567,0.01795,19.00237,179.975,-1.56385
3877,1.24958,101.944,4.53206,178.258,0.02542,19.00237,122.968,-1.12662
3934,1.24964,106.204,4.09664,198.614,0.02063,19.00237,65.96063,-0.8099
3991,1.24964,102.4812,4.38654,205.741,0.02132,19.00237,8.9535,-0.47716
4048,1.24936,105.354,4.22924,178.2379,0.02373,20.0025,151.971,-1.29395
4105,1.2497,99.71967,4.63632,207.084,0.02239,20.0025,94.96425,-1.03735
4162,1.24927,104.457,4.26537,189.4751,0.02251,20.0025,37.95713,-0.60019
4219,1.24945,104.828,4.22786,191.68,0.02206,21.00263,180.975,-1.57149
4276,1.24944,101.109,4.60658,179.213,0.0257,21.00263,123.968,-1.12344
4333,1.24956,102.025,4.49601,185.308,0.02426,21.00263,66.96075,-0.8252
4390,1.2496,101.183,4.52818,197.982,0.02287,21.00263,9.95363,-0.48239
4447,1.24965,102.469,4.46892,181.906,0.02457,22.00275,152.9715,-1.29648
4504,1.24981,100.703,4.51506,216.836,0.02082,22.00275,95.96438,-1.04478
4561,1.24967,103.114,4.37293,192.408,0.02273,22.00275,38.95725,-0.6052
4618,1.2492,104.49,4.22567,201.468,0.02097,23.00287,181.975,-1.57466
4675,1.24959,100.718,4.62005,185.1,0.02496,23.00287,124.968,-1.12955
4732,1.24969,119.6029,3.28178,168.598,0.01947,23.00287,67.96088,-0.8084
4789,1.24959,120.926,3.21259,166.925,0.01925,23.00287,10.95375,-0.46877
4846,1.24948,103.189,4.37047,190.963,0.02289,24.003,153.972,-1.3056
4903,1.24939,109.557,3.88965,181.502,0.02143,24.003,96.9645,-1.04604
4960,1.24964,97.61483,4.84165,208.151,0.02326,24.003,39.95738,-0.60733
5017,1.24948,103.666,4.27812,207.783,0.02059,25.00312,182.975,-1.58037
5074,1.2495,104.221,4.28695,189.2799,0.02265,25.00312,125.968,-1.13299
5131,1.24972,102.01,4.44479,200.517,0.02217,25.00312,68.961,-0.83274
5188,1.24957,106.124,4.09863,200.101,0.02048,25.00312,11.95388,-0.49361
5245,1.2495,101.852,4.48073,193.7621,0.02312,26.00325,154.972,-1.3214
5302,1.24974,98.90722,4.74181,199.647,0.02375,26.00325,97.96463,-1.06522
5359,1.24968,104.697,4.21435,200.099,0.02106,26.00325,40.9575,-0.61431
5416,1.24975,110.571,3.78353,194.602,0.01944,27.00338,183.975,-1.58281
5473,1.24958,100.2099,4.68258,182.004,0.02573,27.00338,126.968,-1.14427
5530,1.24954,116.865,3.39791,186.611,0.01821,27.00338,69.96113,-0.8343
5587,1.24976,100.099,4.56309,219.532,0.02079,27.00338,12.954,-0.50875
5644,1.24951,101.188,4.52552,198.505,0.0228,28.0035,155.972,-1.34458
5701,1.24956,104.622,4.19945,207.589,0.02023,28.0035,98.96475,-1.07575
5758,1.24945,115.721,3.49871,172.971,0.02023,28.0035,41.95763,-0.61757
5815,1.24954,103.784,4.2615,210.371,0.02026,29.00362,184.9755,-1.60247
5872,1.2494,98.28967,4.86315,185.062,0.02628,29.00362,127.968,-1.15953
5929,1.24979,101.026,4.52822,202.573,0.02235,29.00362,70.96125,-0.86902
5986,1.24947,119.879,3.25105,175.016,0.01858,29.00362,13.95413,-0.50314
6043,1.24968,102.434,4.42684,194.314,0.02278,30.00375,156.972,-1.36902
6100,1.24959,100.9705,4.51436,208.343,0.02167,30.00375,99.96488,-1.09497
6157,1.24964,98.77551,4.81999,183.696,0.02624,30.00375,42.95775,-0.64493
6214,1.24943,105.751,4.11581,204.572,0.02012,31.00387,185.976,-1.61352
6271,1.24955,101.921,4.49544,187.962,0.02392,31.00387,128.9685,-1.17486
6328,1.24972,101.936,4.44484,202.587,0.02194,31.00387,71.96138,-0.88368
6385,1.2497,100.479,4.569,205.62,0.02222,31.00387,14.95425,-0.53574
6442,1.24946,98.31371,4.7878,203.045,0.02358,32.004,157.972,-1.37937
6499,1.24974,100.904,4.51356,210.863,0.02141,32.004,100.965,-1.11272
6556,1.24976,100.161,4.67171,185.886,0.02513,32.004,43.95788,-0.6634
6613,1.24965,98.17347,4.78011,209.51,0.02282,33.00412,186.976,-1.63962
6670,1.24947,103.004,4.36567,197.356,0.02212,33.00412,129.969,-1.18742
6727,1.2497,112.466,3.66989,188.24,0.0195,33.00412,72.9615,-0.89039
6784,1.24955,103.525,4.33679,192.358,0.02255,33.00412,15.95438,-0.54899
6841,1.24941,100.447,4.58263,201.98,0.02269,34.00425,158.972,-1.40375
6898,1.2496,101.501,4.45046,213.737,0.02082,34.00425,101.965,-1.13085
6955,1.24969,75.74778,9.0079,169.362,0.05319,34.00425,44.958,-0.67855
7012,1.24957,104.391,4.23296,202.328,0.02092,35.00437,187.976,-1.64277
7069,1.24955,103.032,4.3985,186.9934,0.02352,35.00437,130.969,-1.20706
7126,1.24972,100.981,4.47928,220.519,0.02031,35.00437,73.96163,-0.9167
7183,1.24955,102.687,4.3322,219.0131,0.01978,35.00437,16.9545,-0.56623
7240,1.24956,100.477,4.59153,198.737,0.0231,36.0045,159.972,-1.44309
7297,1.24954,108.5418,3.91658,199.247,0.01966,36.0045,102.965,-1.14222
7354,1.24943,104.215,4.32447,178.814,0.02418,36.0045,45.95813,-0.70881
7411,1.24953,121.9253,3.14426,173.697,0.0181,37.00463,188.976,-1.64452
7468,1.24923,101.76,4.43072,211.999,0.0209,37.00463,131.969,-1.22594
7525,1.24955,100.249,4.57789,209.434,0.02186,37.00463,74.96175,-0.93263
7582,1.24951,111.813,3.73959,178.244,0.02098,37.00463,17.95463,-0.56956
7639,1.2496,102.783,4.43429,183.43,0.02417,38.00475,160.9725,-1.46682
7696,1.24962,102.557,4.35634,214.135,0.02034,38.00475,103.965,-1.1707
7753,1.24951,111.018,3.81258,172.405,0.02211,38.00475,46.95825,-0.72494
7810,1.24973,101.457,4.50669,196.998,0.02288,39.00487,189.976,-1.67802
7867,1.2495,111.19,3.79889,172.867,0.02198,39.00487,132.969,-1.23423
7924,1.24953,104.388,4.2458,197.917,0.02145,39.00487,75.96188,-0.94504
7981,1.24956,119.054,3.2879,179.259,0.01834,39.00487,18.95475,-0.57451
8038,1.24942,98.8986,4.71326,207.597,0.0227,40.005,161.973,-1.49251
8095,1.24983,100.514,4.55083,210.561,0.02161,40.005,104.9655,-1.19447
8152,1.24946,102.4755,4.44745,187.1595,0.02376,40.005,47.95838,-0.7572
8209,1.24951,107.459,3.98763,203.09,0.01963,41.00512,190.976,-1.69717
8266,1.24926,105.29,4.23815,177.168,0.02392,41.00512,133.969,-1.26519
8323,1.24963,118.4143,3.32996,176.684,0.01885,41.00512,76.962,-0.95405
8380,1.24947,100.499,4.52725,218.658,0.0207,41.00512,19.95488,-0.61429
8437,1.24941,103.919,4.32224,186.4152,0.02319,42.00525,162.973,-1.52338
8494,1.24969,100.51,4.56258,206.723,0.02207,42.00525,105.966,-1.21711
8551,1.24921,104.063,4.26883,198.928,0.02146,42.00525,48.9585,-0.77093
8608,1.24979,103.422,4.32383,199.5655,0.02167,43.00538,191.976,-1.72154
8665,1.24933,103.38,4.42164,172.968,0.02556,43.00538,134.969,-1.28351
8722,1.24951,116.692,3.43987,172.851,0.0199,43.00538,77.96213,-0.97485
8779,1.24955,100.694,4.49346,224.758,0.01999,43.00538,20.955,-0.62968
8836,1.24952,103.307,4.42995,172.736,0.02565,44.0055,163.973,-1.54696
8893,1.24961,101.008,4.51098,208.336,0.02165,44.0055,106.966,-1.23801
8950,1.24961,98.12671,4.82003,199.682,0.02414,44.0055,49.95862,-0.80521
9007,1.24988,104.481,4.23537,199.294,0.02125,45.00562,192.9765,-1.74475
9064,1.24945,102.6367,4.42834,188.409,0.0235,45.00562,135.969,-1.30569
9121,1.24941,104.598,4.24052,193.703,0.02189,45.00562,78.96225,-1.00387
9178,1.24973,95.47101,5.16243,187.527,0.02753,45.00562,21.95513,-0.65223
9235,1.24977,103.274,4.3676,189.955,0.02299,46.00575,164.973,-1.56631
9292,1.24954,99.36211,4.62112,223.2733,0.0207,46.00575,107.966,-1.26173
9349,1.24974,105.669,4.24789,167.153,0.02541,46.00575,50.95875,-0.82318
9406,1.24945,105.718,4.14553,194.782,0.02128,47.00587,193.977,-1.76367
9463,1.24945,110.755,3.8398,169.7338,0.02262,47.00587,136.9695,-1.32309
9520,1.2496,100.405,4.63617,188.619,0.02458,47.00587,79.96237,-1.02635
9577,1.24973,97.3982,4.88066,203.729,0.02396,47.00587,22.95525,-0.67269
9634,1.24973,105.008,4.20446,194.793,0.02158,48.006,165.973,-1.59499
9691,1.24962,101.87,4.42582,210.816,0.02099,48.006,108.966,-1.27705
9748,1.2494,126.057,3.00518,144.197,0.02084,48.006,51.95888,-0.83409
9805,1.24966,105.269,4.127,215.902,0.01912,49.00613,194.977,-1.78471
9862,1.24938,101.84,4.59095,167.39,0.02743,49.00613,137.97,-1.35256
9919,1.24942,100.274,4.64789,188.6598,0.02464,49.00613,80.9625,-1.03986
9976,1.24944,100.753,4.58459,193.231,0.02373,49.00613,23.95538,-0.68452
10033,1.24968,102.812,4.34253,211.188,0.02056,50.00625,166.973,-1.61959
10090,1.24946,102.458,4.31739,233.521,0.01849,50.00625,109.966,-1.29482
10147,1.2495,100.863,4.5567,198.226,0.02299,50.00625,52.959,-0.87685
10204,1.24954,103.027,4.35114,201.497,0.02159,51.00637,195.977,-1.80898
10261,1.24933,100.229,4.68128,181.609,0.02578,51.00637,138.97,-1.3741
10318,1.24953,99.11265,4.81049,178.1768,0.027,51.00637,81.96263,-1.05969
10375,1.24961,106.036,4.08873,206.63,0.01979,51.00637,24.9555,-0.69451
10432,1.2495,104.607,4.20249,206.8427,0.02032,52.0065,167.973,-1.64417
10489,1.24986,101.614,4.45083,210.428,0.02115,52.0065,110.966,-1.31059
10546,1.24935,121.615,3.22424,148.245,0.02175,52.0065,53.95913,-0.87986
10603,1.24951,102.992,4.36031,199.431,0.02186,53.00662,196.977,-1.83952
10660,1.24942,102.104,4.50689,180.554,0.02496,53.00662,139.97,-1.39958
10717,1.24951,99.52543,4.6666,203.394,0.02294,53.00662,82.96275,-1.08211
10774,1.24967,103.36,4.35072,192.613,0.02259,53.00662,25.95563,-0.72085
10831,1.24956,111.2,3.7183,204.09,0.01822,54.00675,168.9735,-1.66643
10888,1.24964,102.278,4.37626,215.816,0.02028,54.00675,111.966,-1.32742
10945,1.24939,107.476,3.98695,202.672,0.01967,54.00675,54.95925,-0.91357
11002,1.24967,105.644,4.13247,201.86,0.02047,55.00687,197.977,-1.85094
11059,1.24946,104.075,4.29798,189.646,0.02266,55.00687,140.97,-1.41993
11116,1.2496,99.71251,4.67133,197.042,0.02371,55.00687,83.96288,-1.09402
11173,1.24973,105.349,4.19561,188.609,0.02225,55.00687,26.95575,-0.74594
11230,1.24971,101.658,4.44438,211.087,0.02105,56.007,169.974,-1.69836
11287,1.2496,101.221,4.45368,221.882,0.02007,56.007,112.9665,-1.34414
11344,1.24943,103.677,4.27852,207.2353,0.02065,56.007,55.95938,-0.9423
11401,1.24971,104.074,4.3236,182.619,0.02368,57.00712,198.977,-1.89664
11458,1.24944,103.387,4.36272,188.135,0.02319,57.00712,141.97,-1.44225
11515,1.24931,103.762,4.56654,140.244,0.03256,57.00712,84.963,-1.10427
11572,1.2496,101.856,4.42954,209.927,0.0211,57.00712,27.95587,-0.78005
11629,1.24969,99.88743,4.6299,204.138,0.02268,58.00725,170.974,-1.72834
11686,1.24961,100.737,4.53097,210.008,0.02158,58.00725,113.967,-1.36723
11743,1.24954,110.34,3.84689,177.011,0.02173,58.00725,56.9595,-0.96025
11800,1.24933,102.744,4.44723,180.699,0.02461,58.00725,0,-0.56297
11857,1.24955,98.54062,4.80772,192.02,0.02504,59.00738,142.97,-1.46688
11914,1.24963,97.94824,4.91536,181.856,0.02703,59.00738,85.96313,-1.13825
11971,1.24975,114.248,3.58852,174.557,0.02056,59.00738,28.956,-0.7887
12028,1.24953,104.222,4.27071,194.323,0.02198,60.0075,171.974,-1.75242
12085,1.24964,101.131,4.52379,200.748,0.02253,60.0075,114.967,-1.38146
12142,1.24957,98.05147,4.83984,196.542,0.02462,60.0075,57.95962,-1.00661
12199,1.24972,99.90496,4.64709,198.725,0.02338,60.0075,0.9525,-0.58109
12256,1.24958,96.13795,4.98266,212.114,0.02349,61.00762,143.97,-1.4923
12313,1.24946,104.872,4.20396,198.3856,0.02119,61.00762,86.96325,-1.15225
12370,1.24932,120.045,3.24052,175.45,0.01847,61.00762,29.95613,-0.80946
12427,1.24942,102.142,4.43311,200.068,0.02216,62.00775,172.974,-1.77751
12484,1.24965,116.614,3.46427,165.6301,0.02092,62.00775,115.967,-1.38378
12541,1.24956,108.659,3.98202,173.71,0.02292,62.00775,58.95975,-1.02079
12598,1.24949,114.231,3.63807,158.337,0.02298,62.00775,1.95263,-0.59435
12655,1.24947,110.94,3.8248,170.28,0.02246,63.00787,144.9705,-1.5085
12712,1.24948,107.262,4.04837,186.409,0.02172,63.00787,87.96337,-1.19008
12769,1.24967,102.741,4.45514,179.166,0.02487,63.00787,30.95625,-0.85163
12826,1.24972,100.439,4.55541,211.225,0.02157,64.008,173.974,-1.80655
12883,1.24964,105.355,4.13918,208.069,0.01989,64.008,116.967,-1.40827
12940,1.24934,98.76104,4.79497,189.4417,0.02531,64.008,59.95988,-1.04823
12997,1.24954,102.6452,4.41966,190.747,0.02317,64.008,2.95275,-0.62974
13054,1.24947,101.6305,4.52955,185.983,0.02435,65.00813,145.971,-1.54525
13111,1.24938,121.973,3.21049,146.355,0.02194,65.00813,88.9635,-1.2036
13168,1.24973,103.5363,4.34437,190.0177,0.02286,65.00813,31.95638,-0.87383
13225,1.2497,104.109,4.23674,209.7,0.0202,66.00825,174.974,-1.83344
13282,1.2496,102.349,4.45796,187.586,0.02376,66.00825,117.967,-1.44307
13339,1.24948,108.591,3.98486,174.321,0.02286,66.00825,60.96,-1.06933
13396,1.24938,103.556,4.3142,198.408,0.02174,66.00825,3.95288,-0.66049
13453,1.24951,105.109,4.28391,169.719,0.02524,67.00837,146.971,-1.57598
13510,1.24934,111.422,3.781,173.189,0.02183,67.00837,89.96363,-1.23839
13567,1.24978,103.912,4.29662,194.756,0.02206,67.00837,32.9565,-0.89846
13624,1.24962,103.402,4.30284,207.123,0.02077,68.0085,175.974,-1.85103
13681,1.24961,105.616,4.11108,210.97,0.01949,68.0085,118.967,-1.44949
13738,1.24974,101.96,4.48383,190.3769,0.02355,68.0085,61.96013,-1.09601
13795,1.24961,110.387,3.84831,175.53,0.02192,68.0085,4.953,-0.66825
13852,1.24953,105.3415,4.21184,183.647,0.02293,69.00862,147.971,-1.59023
13909,1.24961,102.173,4.47457,187.429,0.02387,69.00862,90.96375,-1.26787
13966,1.24959,99.77852,4.68912,190.664,0.02459,69.00862,33.95663,-0.9254
14023,1.24932,121.031,3.22943,157.634,0.02049,70.00875,176.9745,-1.85363
14080,1.24958,98.79012,4.68529,220.111,0.02129,70.00875,119.967,-1.47309
14137,1.24956,102.81,4.45311,177.996,0.02502,70.00875,62.96025,-1.11762
14194,1.2495,106.513,4.1356,177.916,0.02324,70.00875,5.95312,-0.70137
14251,1.24935,101.327,4.54229,189.947,0.02391,71.00888,148.971,-1.62059
14308,1.2495,100.673,4.56735,200.334,0.0228,71.00888,91.96388,-1.29777
14365,1.24924,104.164,4.25146,202.002,0.02105,71.00888,34.95675,-0.94753
14422,1.2495,104.022,4.30008,190.434,0.02258,72.009,177.975,-1.89589
14479,1.24947,121.437,3.13535,191.9545,0.01633,72.009,120.9675,-1.47127
14536,1.24941,100.274,4.62844,193.709,0.02389,72.009,63.96038,-1.15274
14593,1.24951,106.624,4.13117,176.645,0.02339,72.009,6.95325,-0.72852
14650,1.24947,103.731,4.36326,179.771,0.02427,73.00912,149.971,-1.6472
14707,1.24945,106.798,4.06506,192.967,0.02107,73.00912,92.964,-1.31583
14764,1.24954,122.6419,3.10963,172.5048,0.01803,73.00912,35.95687,-0.94531
14821,1.24956,101.613,4.56461,177.929,0.02565,74.00925,178.975,-1.90928
14878,1.24952,101.859,4.38415,226.9834,0.01931,74.00925,121.968,-1.50763
14935,1.24955,98.90487,4.7507,197.115,0.0241,74.00925,64.9605,-1.17849
14992,1.24946,109.937,3.90862,167.101,0.02339,74.00925,7.95338,-0.75038
15049,1.24949,103.361,4.35428,191.302,0.02276,75.00937,150.971,-1.67212
15106,1.24945,101.991,4.38609,221.404,0.01981,75.00937,93.96413,-1.34693
15163,1.24949,104.422,4.28406,185.085,0.02315,75.00937,36.957,-0.98436
15220,1.24949,103.034,4.40764,184.39,0.0239,76.0095,179.975,-1.92182
15277,1.24966,101.663,4.4329,214.96,0.02062,76.0095,122.968,-1.52545
15334,1.24956,103.201,4.39065,185.062,0.02373,76.0095,65.96063,-1.19021
15391,1.24952,103.102,4.32806,207.132,0.0209,76.0095,8.9535,-0.7818
15448,1.24957,105.553,4.18592,186.218,0.02248,77.00962,151.971,-1.69052
15505,1.24962,102.201,4.41079,205.867,0.02143,77.00962,94.96425,-1.37499
15562,1.24944,120.691,3.28045,146.811,0.02234,77.00962,37.95713,-0.98938
15619,1.24951,109.9551,3.89205,171.585,0.02268,78.00975,180.975,-1.92416
15676,1.24962,100.342,4.5994,200.2419,0.02297,78.00975,123.968,-1.55515
15733,1.24956,102.714,4.43374,185.161,0.02395,78.00975,66.96075,-1.23368
15790,1.24964,104.708,4.19958,205.04,0.02048,78.00975,9.95363,-0.80831
15847,1.24955,102.988,4.41051,184.786,0.02387,79.00987,152.9715,-1.71833
15904,1.2497,103.867,4.30248,194.021,0.02218,79.00987,95.96438,-1.39848
15961,1.24958,103.901,4.28956,197.071,0.02177,79.00987,38.95725,-1.02843
16018,1.2494,102.856,4.36839,200.524,0.02178,80.01,181.975,-1.93861
16075,1.2495,100.698,4.59004,193.222,0.02376,80.01,124.968,-1.57802
16132,1.24952,106.501,4.1289,180.149,0.02292,80.01,67.96088,-1.2568
16189,1.24957,100.9418,4.51085,210.3628,0.02144,80.01,10.95375,-0.83276
16246,1.24959,98.34764,4.84106,188.877,0.02563,81.01013,153.972,-1.74203
16303,1.24955,103.322,4.33407,198.708,0.02181,81.01013,96.9645,-1.41882
16360,1.24949,104.07,4.24221,208.548,0.02034,81.01013,39.95738,-1.04683
16417,1.24949,119.682,3.34201,145.74,0.02293,82.01025,182.975,-1.93012
16474,1.24939,106.2642,4.11865,189.046,0.02179,82.01025,125.968,-1.59462
16531,1.24946,102.079,4.39342,215.631,0.02037,82.01025,68.961,-1.27102
16588,1.24978,117.95,3.43493,148.987,0.02306,82.01025,11.95388,-0.83963
16645,1.2495,103.66,4.35507,183.639,0.02372,83.01037,154.972,-1.7632
16702,1.24952,103.335,4.28292,216.667,0.01977,83.01037,97.96463,-1.44309
16759,1.24952,101.493,4.51896,192.308,0.0235,83.01037,40.9575,-1.07472
16816,1.24951,101.906,4.44687,202.539,0.02196,84.0105,183.975,-1.96281
16873,1.2496,102.981,4.40188,187.376,0.02349,84.0105,126.968,-1.61685
16930,1.24973,102.626,4.37598,205.148,0.02133,84.0105,69.96113,-1.30687
16987,1.24949,102.724,4.47286,175.096,0.02555,84.0105,12.954,-0.88396
17044,1.24928,116.126,3.4959,164.6756,0.02123,85.01062,155.972,-1.78442
17101,1.24951,101.821,4.45821,201.376,0.02214,85.01062,98.96475,-1.46739
17158,1.24951,107.678,4.02456,183.699,0.02191,85.01062,41.95763,-1.07982
17215,1.24946,104.445,4.37499,162.29,0.02696,86.01075,184.9755,-1.97975
17272,1.24915,106.073,4.16646,178.924,0.02329,86.01075,127.968,-1.64686
17329,1.24967,101.888,4.43994,205.5316,0.0216,86.01075,70.96125,-1.33296
17386,1.24962,101.619,4.54723,181.987,0.02499,86.01075,13.95413,-0.90839
17443,1.2494,123.317,3.12822,149.943,0.02086,87.01088,156.972,-1.80225
17500,1.2497,97.34469,4.88309,204.53,0.02387,87.01088,99.96488,-1.49049
17557,1.24968,100.086,4.66571,189.059,0.02468,87.01088,42.95775,-1.1191
17614,1.24925,102.642,4.40738,194.074,0.02271,88.011,185.976,-2.00378
17671,1.2495,99.53812,4.75387,180.966,0.02627,88.011,128.9685,-1.66939
17728,1.24956,103.948,4.26828,202.914,0.02103,88.011,71.96138,-1.35449
17785,1.24944,107.8395,4.06613,167.889,0.02422,88.011,14.95425,-0.929
17842,1.24938,100.9025,4.56096,195.79,0.0233,89.01112,157.972,-1.84616
17899,1.24943,100.251,4.65358,187.819,0.02478,89.01112,100.965,-1.50043
17956,1.24958,103.369,4.33534,197.043,0.022,89.01112,43.95788,-1.14016
18013,1.2495,103.791,4.3463,182.909,0.02376,90.01125,186.976,-2.02777
18070,1.24971,116.134,3.53108,153.754,0.02297,90.01125,129.969,-1.67337
18127,1.24951,102.555,4.36999,209.082,0.0209,90.01125,72.9615,-1.38165
18184,1.24944,101.471,4.48693,202.226,0.02219,90.01125,15.95438,-0.96202
18241,1.24947,100.978,4.55362,195.98,0.02324,91.01137,158.972,-1.86965
18298,1.24956,101.168,4.58606,182.86,0.02508,91.01137,101.965,-1.53567
18355,1.24952,105.129,4.29189,167.448,0.02563,91.01137,44.958,-1.16727
18412,1.24968,101.683,4.54604,180.87,0.02513,92.0115,187.976,-2.049
18469,1.24935,110.868,3.83901,167.432,0.02293,92.0115,130.969,-1.71087
18526,1.24947,104.093,4.27873,195.163,0.02192,92.0115,73.96163,-1.40994
18583,1.24948,102.3192,4.47987,182.415,0.02456,92.0115,16.9545,-0.98944
18640,1.24951,100.809,4.59663,188.693,0.02436,93.01163,159.972,-1.89331
18697,1.24954,100.134,4.64423,193.23,0.02403,93.01163,102.965,-1.56173
18754,1.24942,100.828,4.60672,185.606,0.02482,93.01163,45.95813,-1.20291
18811,1.24949,103.759,4.30304,196.521,0.0219,94.01175,188.976,-2.08724
18868,1.24947,100.6132,4.5902,195.361,0.0235,94.01175,131.969,-1.74539
18925,1.24934,102.4707,4.46669,182.084,0.02453,94.01175,74.96175,-1.4396
18982,1.24951,114.075,3.61567,168.653,0.02144,94.01175,17.95463,-1.00529
19039,1.24955,107.369,4.04954,183.444,0.02208,95.01187,160.9725,-1.91219
19096,1.24953,102.144,4.50768,179.591,0.0251,95.01187,103.965,-1.58158
19153,1.2496,104.942,4.27407,175.831,0.02431,95.01187,46.95825,-1.21344
19210,1.24944,101.856,4.4864,191.966,0.02337,96.012,189.976,-2.11649
19267,1.24937,104.886,4.35914,157.452,0.02769,96.012,132.969,-1.74533
19324,1.24908,99.21293,4.67909,208.165,0.02248,96.012,75.96188,-1.45226
19381,1.24932,104.612,4.22156,199.559,0.02115,96.012,18.95475,-1.04296
19438,1.24957,102.158,4.42398,202.724,0.02182,97.01213,161.973,-1.94309
19495,1.24944,100.003,4.6248,202.049,0.02289,97.01213,104.9655,-1.60691
19552,1.24954,105.3675,4.24595,173.712,0.02444,97.01213,47.95838,-1.25632
19609,1.24962,101.586,4.53369,186.157,0.02435,98.01225,190.976,-2.14562
19666,1.24945,102.557,4.47381,178.482,0.02507,98.01225,133.969,-1.79037
19723,1.24955,100.445,4.6236,190.805,0.02423,98.01225,76.962,-1.4773
19780,1.24935,106.521,4.07603,196.656,0.02073,98.01225,19.95488,-1.06785
19837,1.24963,101.395,4.55901,184.285,0.02474,99.01237,162.973,-1.96955
19894,1.24959,100.865,4.58425,190.629,0.02405,99.01237,105.966,-1.62831
19951,1.24943,109.479,3.92604,171.87,0.02284,99.01237,48.9585,-1.27293
20008,1.24957,111.145,3.80517,171.964,0.02213,100.0125,191.976,-2.1731
20065,1.24947,100.668,4.6231,185.415,0.02493,100.0125,134.969,-1.81667
20122,1.24941,102.296,4.36495,219.202,0.01991,100.0125,77.96213,-1.49819
20179,1.24956,100.108,4.5956,208.034,0.02209,100.0125,20.955,-1.10909
20236,1.24932,104.687,4.26374,184.255,0.02314,101.013,163.973,-1.99921
20293,1.24954,101.062,4.58039,186.731,0.02453,101.013,106.966,-1.66778
20350,1.2495,111.112,3.83805,162.854,0.02357,101.013,49.95862,-1.29591
20407,1.24942,100.792,4.58441,192.24,0.02385,102.013,192.9765,-2.22219
20464,1.24968,101.856,4.53869,178.752,0.02539,102.013,135.969,-1.84183
20521,1.24952,101.669,4.43995,212.015,0.02094,102.013,78.96225,-1.52685
20578,1.2498,98.14196,4.77248,212.9584,0.02241,102.013,21.95513,-1.14803
20635,1.24967,102.719,4.45397,179.943,0.02475,103.013,164.973,-2.02968
20692,1.24949,114.033,3.67403,152.027,0.02417,103.013,107.966,-1.68636
20749,1.24958,102.555,4.49993,172.553,0.02608,103.013,50.95875,-1.33482
20806,1.24938,121.576,3.17833,166.365,0.0191,104.013,193.977,-2.22627
20863,1.24917,115.547,3.54072,161.696,0.0219,104.013,136.9695,-1.85815
20920,1.24963,102.858,4.29657,227.956,0.01885,104.013,79.96237,-1.55726
20977,1.24951,101.879,4.42538,210.531,0.02102,104.013,22.95525,-1.18281
21034,1.24951,122.822,3.1285,159.883,0.01957,105.013,165.973,-2.0364
21091,1.24937,103.3209,4.33756,197.387,0.02197,105.013,108.966,-1.73308
21148,1.24976,101.662,4.47578,200.7061,0.0223,105.013,51.95888,-1.36163
21205,1.24964,103.538,4.24815,224.249,0.01894,106.013,194.977,-2.28061
21262,1.24935,104.014,4.33238,181.271,0.0239,106.013,137.97,-1.8931
21319,1.24954,121.225,3.17528,176.55,0.01799,106.013,80.9625,-1.56114
21376,1.24956,118.687,3.30378,181.503,0.0182,106.013,23.95538,-1.18917
21433,1.24944,104.275,4.30243,183.382,0.02346,107.013,166.973,-2.07552
21490,1.24957,103.045,4.37366,193.907,0.02256,107.013,109.966,-1.76007
21547,1.24956,112.816,3.68625,173.119,0.02129,107.013,52.959,-1.37077
21604,1.24945,104.46,4.22976,201.242,0.02102,108.0135,195.977,-2.31294
21661,1.24942,121.315,3.22755,152.78,0.02113,108.0135,138.97,-1.90036
21718,1.24971,102.021,4.40424,213.886,0.02059,108.0135,81.96263,-1.60237
21775,1.24969,99.77845,4.72529,182.142,0.02594,108.0135,24.9555,-1.23922
21832,1.24947,105.004,4.24783,181.347,0.02342,109.014,167.973,-2.1013
21889,1.24954,112.64,3.66049,187.149,0.01956,109.014,110.966,-1.78152
21946,1.24958,116.613,3.43589,176.484,0.01947,109.014,53.95913,-1.38953
22003,1.24958,98.00357,4.78038,214.504,0.02229,110.014,196.977,-2.3482
22060,1.24939,106.293,4.16494,174.617,0.02385,110.014,139.97,-1.93977
22117,1.24977,100.034,4.57157,218.729,0.0209,110.014,82.96275,-1.62405
22174,1.24958,102.686,4.44854,181.987,0.02444,110.014,25.95563,-1.25764
22231,1.24952,101.029,4.5871,185.8293,0.02468,111.014,168.9735,-2.12342
22288,1.24944,98.49134,4.79289,196.87,0.02435,111.014,111.966,-1.82356
22345,1.24968,106.569,4.04224,208.788,0.01936,111.014,54.95925,-1.42074
22402,1.2497,105.381,4.19281,188.598,0.02223,112.014,197.977,-2.36533
22459,1.24945,102.527,4.50019,172.9635,0.02602,112.014,140.97,-1.96076
22516,1.2496,94.99467,5.03676,233.174,0.0216,112.014,83.96288,-1.64438
22573,1.24978,104.1868,4.37635,167.241,0.02617,112.014,26.95575,-1.27989
22630,1.24973,100.292,4.65541,186.692,0.02494,113.014,169.974,-2.14019
22687,1.24946,101.625,4.49568,195.3738,0.02301,113.014,112.9665,-1.85792
22744,1.24959,103.139,4.29304,219.349,0.01957,113.014,55.95938,-1.45028
22801,1.24962,118.938,3.30674,173.812,0.01902,114.014,198.977,-2.38094
22858,1.24962,105.599,4.17107,189.741,0.02198,114.014,141.97,-1.98454
22915,1.24961,97.39103,4.8964,199.682,0.02452,114.014,84.963,-1.66599
22972,1.24973,104.963,4.18769,201.869,0.02074,114.014,27.95587,-1.29605
23029,1.24936,101.896,4.47883,192.98,0.02321,115.014,170.974,-2.17604
23086,1.24947,118.732,3.38095,150.814,0.02242,115.014,113.967,-1.8685
23143,1.24936,101.387,4.52247,193.866,0.02333,115.014,56.9595,-1.49671
23200,1.24939,103.29,4.3843,184.449,0.02377,115.014,0,-1.10926
23257,1.2495,103.376,4.33844,195.759,0.02216,116.0145,142.97,-2.02637
23314,1.24952,102.771,4.37307,201.602,0.02169,116.0145,85.96313,-1.69908
23371,1.24951,100.662,4.62583,184.91,0.02502,116.0145,28.956,-1.34125
23428,1.24934,101.677,4.49628,193.683,0.02321,117.015,171.974,-2.20444
23485,1.24967,100.687,4.49942,222.92,0.02018,117.015,114.967,-1.91845
23542,1.2496,104.992,4.28044,173.107,0.02473,117.015,57.95962,-1.52871
23599,1.24942,101.972,4.48929,188.207,0.02385,117.015,0.9525,-1.12369
23656,1.24963,96.26634,5.04274,193.739,0.02603,118.015,143.97,-2.05603
23713,1.24961,102.363,4.3891,208.409,0.02106,118.015,86.96325,-1.7223
23770,1.24952,113.021,3.66251,176.601,0.02074,118.015,29.95613,-1.35634
23827,1.24934,103.444,4.38379,180.879,0.02424,119.015,172.974,-2.22859
23884,1.24954,112.345,3.70158,178.889,0.02069,119.015,115.967,-1.9378
23941,1.24963,100.73,4.58482,193.988,0.02363,119.015,58.95975,-1.55582
23998,1.24942,98.3846,4.78799,200.983,0.02382,119.015,1.95263,-1.15931
24055,1.24946,102.004,4.50791,182.661,0.02468,120.015,144.9705,-2.07879
24112,1.24975,100.147,4.56646,216.763,0.02107,120.015,87.96337,-1.74425
24169,1.24933,106.058,4.167,179.314,0.02324,120.015,30.95625,-1.38498
24226,1.24974,102.083,4.55251,170.892,0.02664,121.015,173.974,-2.25432
24283,1.24956,100.09,4.52969,232.327,0.0195,121.015,116.967,-1.9745
24340,1.24953,108.595,3.98429,174.449,0.02284,121.015,59.95988,-1.56736
24397,1.24951,106.11,4.17566,175.9,0.02374,121.015,2.95275,-1.1792
24454,1.24951,105.377,4.25871,170.275,0.02501,122.015,145.971,-2.09983
24511,1.24974,101.456,4.43261,222.12,0.01996,122.015,88.9635,-1.76057
24568,1.2495,100.857,4.57802,192.409,0.02379,122.015,31.95638,-1.41149
24625,1.24943,101.4967,4.5466,184.782,0.02461,123.015,174.974,-2.27345
24682,1.24962,101.435,4.43576,221.437,0.02003,123.015,117.967,-1.99369
24739,1.24962,100.355,4.59171,202.144,0.02272,123.015,60.96,-1.59177
24796,1.24946,99.11733,4.75161,191.332,0.02483,123.015,3.95288,-1.21268
24853,1.24957,113.409,3.69215,158.727,0.02326,124.0155,146.971,-2.10932
24910,1.2497,108.1244,3.95143,197.906,0.01997,124.0155,89.96363,-1.77057
24967,1.24977,102.914,4.42817,182.1423,0.02431,124.0155,32.9565,-1.41973
25024,1.2494,110.217,3.86429,174.124,0.02219,125.016,175.974,-2.28404
25081,1.24972,100.717,4.51086,217.758,0.02071,125.016,118.967,-2.01621
25138,1.24932,103.047,4.39161,188.3,0.02332,125.016,61.96013,-1.60444
25195,1.24965,107.338,4.10263,168.975,0.02428,125.016,4.953,-1.22378
25252,1.24937,106.439,4.13286,180.2938,0.02292,126.016,147.971,-2.13666
25309,1.2497,104.051,4.29477,191.56,0.02242,126.016,90.96375,-1.79638
25366,1.24942,101.696,4.50424,191.0545,0.02358,126.016,33.95663,-1.43951
25423,1.24948,110.222,3.86516,173.809,0.02224,127.016,176.9745,-2.3091
25480,1.24963,99.13902,4.67298,213.068,0.02193,127.016,119.967,-2.05168
25537,1.24953,106.761,4.17194,163.326,0.02554,127.016,62.96025,-1.6269
25594,1.24944,99.72936,4.67195,196.228,0.02381,127.016,5.95312,-1.27011
25651,1.24946,121.242,3.22361,155.667,0.02071,128.016,148.971,-2.14909
25708,1.24951,108.081,3.9737,190.537,0.02086,128.016,91.96388,-1.83101
25765,1.24936,105.34,4.26007,170.5737,0.02497,128.016,34.95675,-1.46987
25822,1.24974,99.70397,4.66441,199.3434,0.0234,129.016,177.975,-2.35414
25879,1.24971,98.21255,4.74836,218.204,0.02176,129.016,120.9675,-2.07616
25936,1.2497,100.357,4.68129,179.131,0.02613,129.016,63.96038,-1.65966
25993,1.24927,102.6524,4.42886,187.664,0.0236,129.016,6.95325,-1.29838
26050,1.24947,100.462,4.57615,203.596,0.02248,130.016,149.971,-2.18553
26107,1.24941,103.54,4.38161,179.3251,0.02443,130.016,92.964,-1.85467
26164,1.24956,113.445,3.60871,186.7842,0.01932,130.016,35.95687,-1.49156
26221,1.24955,115.979,3.5191,160.29,0.02195,131.016,178.975,-2.36666
26278,1.2496,99.19474,4.6472,219.798,0.02114,131.016,121.968,-2.09591
26335,1.24946,113.205,3.67272,168.7685,0.02176,131.016,64.9605,-1.66654
26392,1.24953,100.891,4.57722,191.785,0.02387,131.016,7.95338,-1.32627
26449,1.24966,99.56087,4.64306,209.67,0.02214,132.0165,150.971,-2.20734
26506,1.24945,99.29792,4.67544,207.253,0.02256,132.0165,93.96413,-1.88058
26563,1.2496,102.526,4.35621,215.179,0.02024,132.0165,36.957,-1.53637
26620,1.24969,99.27198,4.74907,188.423,0.0252,133.017,179.975,-2.41057
26677,1.24971,100.568,4.54945,209.205,0.02175,133.017,122.968,-2.11736
26734,1.24946,100.656,4.56267,202.1453,0.02257,133.017,65.96063,-1.69914
26791,1.24941,100.874,4.58241,190.687,0.02403,133.017,8.9535,-1.35739
26848,1.24982,104.346,4.21683,209.999,0.02008,134.017,151.971,-2.22498
26905,1.24957,97.88119,4.84496,199.731,0.02426,134.017,94.96425,-1.90726
26962,1.24951,99.51722,4.61522,220.094,0.02097,134.017,37.95713,-1.55746
27019,1.24949,98.98963,4.77557,188.687,0.02531,135.017,180.975,-2.43036
27076,1.24975,100.06,4.60861,205.692,0.02241,135.017,123.968,-2.13168
27133,1.24946,104.466,4.27172,187.543,0.02278,135.017,66.96075,-1.71532
27190,1.24946,101.669,4.50689,191.061,0.02359,135.017,9.95363,-1.37701
27247,1.24959,102.596,4.36148,210.957,0.02067,136.017,152.9715,-2.24749
27304,1.24939,117.107,3.47961,150.658,0.0231,136.017,95.96438,-1.91353
27361,1.2497,101.361,4.50932,198.792,0.02268,136.017,38.95725,-1.58393
27418,1.24958,110.847,3.88162,156.54,0.0248,137.017,181.975,-2.4429
27475,1.24968,97.42143,4.80314,226.337,0.02122,137.017,124.968,-2.15197
27532,1.24954,104.12,4.31116,184.792,0.02333,137.017,67.96088,-1.73913
27589,1.24956,103.754,4.32493,189.967,0.02277,137.017,10.95375,-1.39607
27646,1.24962,103.624,4.26949,212.551,0.02009,138.017,153.972,-2.26879
27703,1.24962,107.849,3.9793,195.035,0.0204,138.017,96.9645,-1.94926
27760,1.24961,102.607,4.3491,215.22,0.02021,138.017,39.95738,-1.61456
27817,1.24968,102.484,4.48633,177.312,0.0253,139.017,182.975,-2.47463
27874,1.24978,99.09581,4.69442,207.9226,0.02258,139.017,125.968,-2.17125
27931,1.24976,103.354,4.37863,184.856,0.02369,139.017,68.961,-1.75987
27988,1.24974,117.437,3.3923,174.426,0.01945,139.017,11.95388,-1.4116
28045,1.2499,101.847,4.41653,215.293,0.02051,140.0175,154.972,-2.30476
28102,1.2494,101.015,4.55521,194.479,0.02342,140.0175,97.96463,-1.97996
28159,1.24982,100.91,4.49582,216.955,0.02072,140.0175,40.9575,-1.65689
28216,1.24951,107.566,4.08051,169.869,0.02402,141.018,183.975,-2.49472
28273,1.24974,102.154,4.41762,205.171,0.02153,141.018,126.968,-2.18571
28330,1.2498,101.035,4.5561,194.166,0.02346,141.018,69.96113,-1.79003
28387,1.24953,101.63,4.4629,205.417,0.02173,141.018,12.954,-1.45722
28444,1.24966,101.605,4.46208,206.637,0.02159,142.018,155.972,-2.34475
28501,1.24931,103.637,4.35822,183.128,0.0238,142.018,98.96475,-2.00925
28558,1.24963,102.779,4.38443,197.874,0.02216,142.018,41.95763,-1.68269
28615,1.24951,107.331,4.03642,188.656,0.0214,143.018,184.9755,-2.52414
28672,1.2496,100.088,4.57937,214.012,0.0214,143.018,127.968,-2.20331
28729,1.24964,101.187,4.56293,188.308,0.02423,143.018,70.96125,-1.80861
28786,1.24956,102.6421,4.37181,205.859,0.02124,143.018,13.95413,-1.48037
28843,1.2496,102.988,4.35583,201.14,0.02166,144.018,156.972,-2.37645
28900,1.24929,105.202,4.30387,163.118,0.02639,144.018,99.96488,-2.04631
28957,1.24952,104.087,4.26181,201.028,0.0212,144.018,42.95775,-1.71057
29014,1.24961,101.3206,4.53608,192.097,0.02361,145.018,185.976,-2.54231
29071,1.24945,112.24,3.64694,204.987,0.01779,145.018,128.9685,-2.20735
29128,1.24956,101.148,4.55447,191.416,0.02379,145.018,71.96138,-1.83851
29185,1.24962,103.765,4.27287,206.869,0.02065,145.018,14.95425,-1.50901
29242,1.24944,104.633,4.21454,201.57,0.02091,146.018,157.972,-2.4058
29299,1.24973,121.133,3.21668,160.837,0.02,146.018,100.965,-2.04724
29356,1.24987,101.838,4.46477,199.312,0.0224,146.018,43.95788,-1.7496
29413,1.2497,98.45889,4.79935,196.361,0.02444,147.018,186.976,-2.56136
29470,1.24954,105.747,4.11809,203.972,0.02019,147.018,129.969,-2.22792
29527,1.24951,100.914,4.5058,212.8541,0.02117,147.018,72.9615,-1.85571
29584,1.24972,104.711,4.24829,188.702,0.02251,147.018,15.95438,-1.53359
29641,1.24966,103.0653,4.34571,202.344,0.02148,148.0185,158.972,-2.44566
29698,1.2497,106.272,4.14821,180.117,0.02303,148.0185,101.965,-2.09336
29755,1.24972,100.807,4.56635,197.216,0.02315,148.0185,44.958,-1.78265
29812,1.2497,98.55761,4.76918,201.689,0.02365,149.019,187.976,-2.58122
29869,1.24951,103.017,4.31367,215.17,0.02005,149.019,130.969,-2.24933
29926,1.24966,102.179,4.38278,216.658,0.02023,149.019,73.96163,-1.87815
29983,1.24973,100.639,4.532,212.869,0.02129,149.019,16.9545,-1.561
30040,1.24949,112.2634,3.67476,191.548,0.01918,150.019,159.972,-2.45419
30097,1.24975,105.872,4.20138,174.534,0.02407,150.019,102.965,-2.11278
30154,1.2495,110.46,3.79742,191.768,0.0198,150.019,45.95813,-1.8031
30211,1.24959,104.246,4.30994,182.176,0.02366,151.019,188.976,-2.59859
30268,1.24976,114.083,3.5808,181.635,0.01971,151.019,131.969,-2.25619
30325,1.24966,100.093,4.58032,213.629,0.02144,151.019,74.96175,-1.91048
30382,1.24944,102.143,4.4626,191.288,0.02333,151.019,17.95463,-1.58529
30439,1.24987,110.36,3.83526,180.836,0.02121,152.019,160.9725,-2.48543
30496,1.24951,104.081,4.31138,185.651,0.02322,152.019,103.965,-2.13685
30553,1.24978,102.429,4.42344,195.616,0.02261,152.019,46.95825,-1.83345
30610,1.24968,101.925,4.50514,185.466,0.02429,153.019,189.976,-2.62128
30667,1.24972,104.26,4.27103,193.428,0.02208,153.019,132.969,-2.29115
30724,1.24948,103.497,4.28071,212.131,0.02018,153.019,75.96188,-1.94527
30781,1.24961,101.676,4.44735,209.352,0.02124,153.019,18.95475,-1.60185
30838,1.24947,100.46,4.64581,184.7769,0.02514,154.019,161.973,-2.52428
30895,1.24966,101.414,4.46979,209.828,0.0213,154.019,104.9655,-2.15788
30952,1.24977,101.94,4.48682,190.094,0.0236,154.019,47.95838,-1.85284
31009,1.24954,113.0443,3.69289,165.87,0.02226,155.019,190.976,-2.62844
31066,1.24961,104.572,4.30316,176.531,0.02438,155.019,133.969,-2.31469
31123,1.24942,100.402,4.51895,224.99,0.02009,155.019,76.962,-1.97949
31180,1.2497,102.97,4.33771,208.022,0.02085,155.019,19.95488,-1.6208
31237,1.24936,111.204,3.77086,181.932,0.02073,156.0195,162.973,-2.54998
31294,1.24963,105.027,4.19751,196.478,0.02136,156.0195,105.966,-2.17737
31351,1.24961,109.121,3.92524,180.62,0.02173,156.0195,48.9585,-1.8696
31408,1.24943,119.422,3.30697,162.375,0.02037,157.02,191.976,-2.65436
31465,1.24937,108.302,4.01009,173.311,0.02314,157.02,134.969,-2.33745
31522,1.24948,106.1981,4.09872,197.8174,0.02072,157.02,77.96213,-2.01304
31579,1.24965,100.53,4.61342,191.447,0.0241,157.02,20.955,-1.64684
31636,1.2496,101.234,4.5727,184.636,0.02477,158.02,163.973,-2.58352
31693,1.24952,103.314,4.3315,199.7507,0.02168,158.02,106.966,-2.20492
31750,1.24941,112.383,3.70218,177.588,0.02085,158.02,49.95862,-1.88584
31807,1.24946,101.083,4.51562,204.445,0.02209,159.02,192.9765,-2.68725
31864,1.24959,108.72,3.97977,173.048,0.023,159.02,135.969,-2.35409
31921,1.24963,100.187,4.57257,213.231,0.02144,159.02,78.96225,-2.06686
31978,1.24963,100.959,4.56487,193.517,0.02359,159.02,21.95513,-1.68434
32035,1.24953,103.128,4.40547,182.777,0.0241,160.02,164.973,-2.63812
32092,1.24943,100.2194,4.64829,189.917,0.02448,160.02,107.966,-2.24289
32149,1.24986,101.666,4.46303,204.763,0.0218,160.02,50.95875,-1.93025
32206,1.24936,101.98,4.53095,177.519,0.02552,161.02,193.977,-2.72759
32263,1.2494,104.408,4.27838,186.981,0.02288,161.02,136.9695,-2.39108
32320,1.24962,103.117,4.37134,192.7556,0.02268,161.02,79.96237,-2.09767
32377,1.24971,104.263,4.25337,199.1491,0.02136,161.02,22.95525,-1.70286
32434,1.24942,101.406,4.55372,185.1227,0.0246,162.02,165.973,-2.66804
32491,1.24973,101.793,4.48164,195.312,0.02295,162.02,108.966,-2.25841
32548,1.24956,102.564,4.37116,208.46,0.02097,162.02,51.95888,-1.9588
32605,1.24948,102.345,4.42563,196.852,0.02248,163.02,194.977,-2.75896
32662,1.24953,110.983,3.83262,167.0772,0.02294,163.02,137.97,-2.40845
32719,1.24945,119.8002,3.29394,159.262,0.02068,163.02,80.9625,-2.11306
32776,1.24964,100.826,4.5736,194.588,0.0235,163.02,23.95538,-1.73142
32833,1.24956,106.71,4.13211,174.524,0.02368,164.0205,166.973,-2.69532
32890,1.24956,103.499,4.36616,184.554,0.02366,164.0205,109.966,-2.26753
32947,1.24954,104.457,4.2003,212.474,0.01977,164.0205,52.959,-1.98212
33004,1.24963,102.1662,4.47811,186.682,0.02399,165.021,195.977,-2.78556
33061,1.24949,105.643,4.18956,182.821,0.02292,165.021,138.97,-2.43523
33118,1.24954,117.593,3.39805,168.2087,0.0202,165.021,81.96263,-2.14707
33175,1.24968,100.637,4.55414,205.616,0.02215,165.021,24.9555,-1.75538
33232,1.24944,104.436,4.30285,179.51,0.02397,166.021,167.973,-2.71796
33289,1.24936,104.772,4.22247,194.81,0.02167,166.021,110.966,-2.30116
33346,1.24973,98.21736,4.7901,205.4561,0.02331,166.021,53.95913,-2.00486
33403,1.24933,106.447,4.09494,192.023,0.02133,167.021,196.977,-2.80537
33460,1.24934,105.3,4.24588,174.982,0.02426,167.021,139.97,-2.45485
33517,1.24957,86.98387,6.31381,187.836,0.03361,167.021,82.96275,-2.17368
33574,1.24952,103.522,4.30857,201.437,0.02139,167.021,25.95563,-1.77095
33631,1.24964,103.89,4.36027,177.139,0.02461,168.021,168.9735,-2.73495
33688,1.24965,104.063,4.34393,177.45,0.02448,168.021,111.966,-2.31058
33745,1.24985,102.3701,4.34487,225.446,0.01927,168.021,54.95925,-2.02333
33802,1.2497,104.48,4.29143,181.847,0.0236,169.021,197.977,-2.83411
33859,1.24959,102.226,4.47124,187.018,0.02391,169.021,140.97,-2.48191
33916,1.24979,101.2865,4.51865,198.19,0.0228,169.021,83.96288,-2.19634
33973,1.24967,102.507,4.36535,212.474,0.02055,169.021,26.95575,-1.80188
34030,1.24968,101.029,4.48915,215.257,0.02085,170.021,169.974,-2.75965
34087,1.24933,101.636,4.54918,180.813,0.02516,170.021,112.9665,-2.33027
34144,1.24958,102.171,4.38543,215.794,0.02032,170.021,55.95938,-2.04328
34201,1.24929,101.945,4.46591,195.332,0.02286,171.021,198.977,-2.86568
34258,1.24926,105.199,4.2284,181.971,0.02324,171.021,141.97,-2.50592
34315,1.24963,104.134,4.20647,221.022,0.01903,171.021,84.963,-2.21318
34372,1.24957,100.71,4.51783,215.264,0.02099,171.021,27.95587,-1.83067
34429,1.24976,118.1055,3.35721,172.793,0.01943,172.0215,170.974,-2.76252
34486,1.24941,102.975,4.37496,195.169,0.02242,172.0215,113.967,-2.34532
34543,1.24965,102.331,4.40044,205.54,0.02141,172.0215,56.9595,-2.05925
34600,1.24949,101.531,4.52556,189.4892,0.02388,172.0215,0,-1.59431
34657,1.24959,105.287,4.22807,180.35,0.02344,173.022,142.97,-2.52892
34714,1.24977,99.88555,4.60849,210.957,0.02185,173.022,85.96313,-2.22526
34771,1.24968,119.199,3.29107,174.298,0.01888,173.022,28.956,-1.83113
34828,1.24945,103.431,4.3252,198.399,0.0218,174.022,171.974,-2.79646
34885,1.24955,98.57596,4.80119,192.7401,0.02491,174.022,114.967,-2.36064
34942,1.24969,102.439,4.34963,220.817,0.0197,174.022,57.95962,-2.08222
34999,1.24961,106.132,4.17809,174.875,0.02389,174.022,0.9525,-1.60782
35056,1.24946,106.128,4.14235,185.081,0.02238,175.022,143.97,-2.5516
35113,1.24964,102.281,4.39445,209.098,0.02102,175.022,86.96325,-2.23593
35170,1.24966,101.2,4.48761,210.3791,0.02133,175.022,29.95613,-1.86986
35227,1.24958,102.84,4.34697,208.5523,0.02084,176.022,172.974,-2.81259
35284,1.24949,100.059,4.65466,192.35,0.0242,176.022,115.967,-2.38218
35341,1.24969,100.8632,4.53332,205.554,0.02205,176.022,58.95975,-2.10309
35398,1.24926,102.519,4.44057,187.748,0.02365,176.022,1.95263,-1.62996
35455,1.24953,102.092,4.43766,200.1871,0.02217,177.022,144.9705,-2.58266
35512,1.24972,102.992,4.27629,232.156,0.01842,177.022,87.96337,-2.24757
35569,1.24962,102.597,4.3857,202.607,0.02165,177.022,30.95625,-1.89014
35626,1.24975,99.48767,4.63117,215.932,0.02145,178.022,173.974,-2.83587
35683,1.24946,99.90482,4.69459,186.115,0.02522,178.022,116.967,-2.40558
35740,1.24953,99.16229,4.64054,223.125,0.0208,178.022,59.95988,-2.12359
35797,1.24958,118.8246,3.32808,167.57,0.01986,178.022,2.95275,-1.63756
35854,1.24962,109.358,3.91711,177.5897,0.02206,179.022,145.971,-2.60252
35911,1.24959,102.635,4.39873,197.327,0.02229,179.022,88.9635,-2.25927
35968,1.24973,111.383,3.7834,173.764,0.02177,179.022,31.95638,-1.89698
36025,1.24962,101.899,4.42704,209.508,0.02113,180.0225,174.974,-2.85631
36082,1.24978,100.957,4.57733,190.383,0.02404,180.0225,117.967,-2.42833
36139,1.2496,102.499,4.43468,190.28,0.02331,180.0225,60.96,-2.15128
36196,1.24973,103.651,4.33584,189.593,0.02287,180.0225,3.95288,-1.67436
36253,1.24967,102.336,4.51945,172.843,0.02615,181.023,146.971,-2.6375
36310,1.24955,115.435,3.50275,178.477,0.01963,181.023,89.96363,-2.26394
36367,1.24985,103.205,4.3807,188.065,0.02329,181.023,32.9565,-1.93586
36424,1.24955,104.0614,4.26351,201.238,0.02119,182.023,175.974,-2.87677
36481,1.24937,101.526,4.56371,179.872,0.02537,182.023,118.967,-2.45453
36538,1.24963,103.933,4.3646,175.105,0.02493,182.023,61.96013,-2.16957
36595,1.24946,99.58668,4.7646,177.566,0.02683,182.023,4.953,-1.70148
36652,1.24953,103.642,4.32242,193.631,0.02232,183.023,147.971,-2.64472
36709,1.2495,98.47983,4.73434,213.918,0.02213,183.023,90.96375,-2.30512
36766,1.2498,107.1328,4.09486,175.707,0.0233,183.023,33.95663,-1.95977
36823,1.24976,118.757,3.3413,164.18,0.02035,184.023,176.9745,-2.88122
36880,1.24955,95.15776,5.1193,204.644,0.02502,184.023,119.967,-2.4794
36937,1.24977,102.706,4.37462,203.307,0.02152,184.023,62.96025,-2.18694
36994,1.24947,121.1202,3.24748,149.711,0.02169,184.023,5.95312,-1.7148
37051,1.24946,101.356,4.56823,182.738,0.025,185.023,148.971,-2.67015
37108,1.24947,97.24029,4.84383,218.731,0.02215,185.023,91.96388,-2.32342
37165,1.24975,102.536,4.359,214.033,0.02037,185.023,34.95675,-1.9879
37222,1.24974,98.45924,4.76789,204.859,0.02327,186.023,177.975,-2.92173
37279,1.24961,96.37116,5.03611,192.619,0.02615,186.023,120.9675,-2.49923
37336,1.24972,99.2552,4.66463,212.2572,0.02198,186.023,63.96038,-2.21197
37393,1.24959,104.902,4.22636,190.39,0.0222,186.023,6.95325,-1.75791
37450,1.24972,100.291,4.68583,179.613,0.02609,187.023,149.971,-2.70088
37507,1.24959,98.97265,4.74899,195.831,0.02425,187.023,92.964,-2.35172
37564,1.2496,102.114,4.4114,208.284,0.02118,187.023,35.95687,-2.01927
37621,1.24955,97.22073,4.82662,225.082,0.02144,188.0235,178.975,-2.94799
37678,1.24964,100.857,4.66305,172.418,0.02705,188.0235,121.968,-2.53707
37735,1.24981,102.498,4.38906,204.631,0.02145,188.0235,64.9605,-2.23839
37792,1.2495,100.723,4.65358,177.12,0.02627,188.0235,7.95338,-1.78444
37849,1.24956,110.651,3.8627,165.368,0.02336,189.024,150.971,-2.71701
37906,1.2497,104.821,4.25773,183.171,0.02324,189.024,93.96413,-2.3753
37963,1.2496,96.88589,4.87929,219.273,0.02225,189.024,36.957,-2.05184
38020,1.24957,109.978,3.88516,173.236,0.02243,190.024,179.975,-2.96196
38077,1.24971,103.236,4.37608,188.413,0.02323,190.024,122.968,-2.56207
38134,1.24983,101.176,4.48137,213.514,0.02099,190.024,65.96063,-2.26279
38191,1.24963,100.867,4.5713,194.123,0.02355,190.024,8.9535,-1.81547
38248,1.24965,100.809,4.54225,204.2816,0.02224,191.024,151.971,-2.75611
38305,1.24941,107.64,4.01408,188.032,0.02135,191.024,94.96425,-2.39732
38362,1.2497,101.941,4.44155,203.493,0.02183,191.024,37.95713,-2.07281
38419,1.24951,100.314,4.67111,182.209,0.02564,192.024,180.975,-2.99711
38476,1.2494,122.176,3.18598,150.918,0.02111,192.024,123.968,-2.57687
38533,1.24965,103.1831,4.39231,185.134,0.02373,192.024,66.96075,-2.29332
38590,1.24952,100.251,4.64218,190.798,0.02433,192.024,9.95363,-1.8433
38647,1.24968,101.617,4.43187,216.882,0.02043,193.024,152.9715,-2.79259
38704,1.24952,101.436,4.52998,190.717,0.02375,193.024,95.96438,-2.42838
38761,1.24954,100.942,4.5242,205.937,0.02197,193.024,38.95725,-2.1049
38818,1.24936,103.276,4.41279,177.352,0.02488,194.024,181.975,-3.0266
38875,1.24965,100.971,4.59441,185.507,0.02477,194.024,124.968,-2.63628
38932,1.24949,99.42331,4.69086,199.304,0.02354,194.024,67.96088,-2.31756
38989,1.24954,105.488,4.1973,184.376,0.02276,194.024,10.95375,-1.87234
39046,1.24961,105.278,4.12021,218.465,0.01886,195.024,153.972,-2.82866
39103,1.2497,101.455,4.56072,182.535,0.02499,195.024,96.9645,-2.45381
39160,1.24968,107.279,3.99375,206.413,0.01935,195.024,39.95738,-2.13075
39217,1.24964,101.09,4.57397,187.814,0.02435,196.0245,182.975,-3.04757
39274,1.24957,99.4912,4.69344,196.883,0.02384,196.0245,125.968,-2.67098
39331,1.24944,102.639,4.39986,196.671,0.02237,196.0245,68.961,-2.33684
39388,1.24962,108.259,3.93918,198.668,0.01983,196.0245,11.95388,-1.89662
39445,1.24986,100.7772,4.55572,201.342,0.02263,197.025,154.972,-2.86272
39502,1.2496,101.784,4.48867,193.3649,0.02321,197.025,97.96463,-2.4778
39559,1.24959,106.911,4.02685,204.22,0.01972,197.025,40.9575,-2.1566
39616,1.24945,101.66,4.51952,187.868,0.02406,198.025,183.975,-3.06906
39673,1.24946,98.2464,4.75238,215.489,0.02205,198.025,126.968,-2.70151
39730,1.24951,102.916,4.39726,190.212,0.02312,198.025,69.96113,-2.367
39787,1.24959,98.61186,4.80594,190.737,0.0252,198.025,12.954,-1.93223
39844,1.24972,101.64,4.46573,204.468,0.02184,199.025,155.972,-2.89587
39901,1.24943,104.04,4.3413,178.41,0.02433,199.025,98.96475,-2.49596
39958,1.24957,101.966,4.38931,221.178,0.01985,199.025,41.95763,-2.18584
40000,1.24957,105.397,4.2698,167.269,0.02553,199.025,0,-1.8419