File: data/nanoindent_maps/Duplex Steel 5um.csv
Index,Load,Depth,HARDNESS,MODULUS,H/E,X Position,Y Position,Z Position
Integer,mN,nm,GPa,GPa,None,µm,µm,µm
1,19.99713,494.654,3.67673,223.18,0.01647,0,994.9815,-8.36395
59,19.99798,494.676,3.66034,233.389,0.01568,0,704.993,-6.06307
117,19.99757,506.001,3.51744,213.188,0.0165,0,414.957,-4.04161
175,19.99797,511.555,3.42104,222.827,0.01535,0,124.968,-2.10383
233,19.9981,490.155,3.7407,228.841,0.01635,5.00063,834.9615,-7.11441
291,19.99803,514.571,3.38834,215.89,0.01569,5.00063,544.973,-4.90295
349,19.99798,505.0188,3.50953,227.703,0.01541,5.00063,254.984,-2.86238
407,19.99739,487.876,3.77987,227.952,0.01658,10.00125,964.978,-8.11976
465,19.99809,495.886,3.64544,230.595,0.01581,10.00125,674.989,-5.75115
523,19.99742,515,3.38142,216.3887,0.01563,10.00125,384.953,-3.74964
581,19.99809,498.936,3.59347,233.471,0.01539,10.00125,94.96425,-1.86706
639,19.99783,489.313,3.73246,243.0938,0.01535,15.00188,804.958,-6.90865
697,19.99809,502.804,3.53608,232.336,0.01522,15.00188,514.969,-4.72024
755,19.99764,485.08,3.83714,222.385,0.01725,15.00188,224.9805,-2.5721
813,19.99801,506.193,3.5021,220.998,0.01585,20.0025,934.974,-7.92551
871,19.99836,450.697,4.51182,220.739,0.02044,20.0025,644.985,-5.6103
929,19.99763,505.866,3.53046,206.857,0.01707,20.0025,354.997,-3.55987
987,19.99754,473.313,4.04435,224.045,0.01805,20.0025,64.9605,-1.77032
1045,19.99773,504.819,3.52243,221.093,0.01593,25.00312,774.954,-6.67542
1103,19.99789,489.796,3.7569,222.775,0.01686,25.00312,484.965,-4.59041
1161,19.99737,510.57,3.46781,202.6499,0.01711,25.00312,194.977,-2.52901
1219,19.99805,500.495,3.59761,215.551,0.01669,30.00375,904.97,-7.73759
1277,19.99817,481.849,3.88052,229.393,0.01692,30.00375,614.982,-5.45153
1335,19.99772,472.933,4.0573,221.219,0.01834,30.00375,324.993,-3.4607
1393,19.99784,485.866,3.83831,214.7162,0.01788,30.00375,34.95675,-1.75992
1451,19.99754,517.468,3.36867,202.617,0.01663,35.00437,744.998,-6.57498
1509,19.99754,505.071,3.54575,205.073,0.01729,35.00437,454.962,-4.46207
1567,19.99747,504.475,3.54776,208.973,0.01698,35.00437,164.973,-2.43649
1625,19.99767,500.997,3.60091,209.2257,0.01721,40.005,874.9665,-7.64181
1683,19.99727,499.746,3.61729,210.9359,0.01715,40.005,584.978,-5.35366
1741,19.99769,487.506,3.7586,245.569,0.01531,40.005,294.989,-3.39468
1799,19.9979,490.031,3.7469,226.316,0.01656,40.005,4.953,-1.60301
1857,19.99747,495.117,3.69337,209.756,0.01761,45.00562,714.994,-6.4044
1915,19.99802,486.781,3.78899,233.607,0.01622,45.00562,424.958,-4.38181
1973,19.99809,497.405,3.62718,226.935,0.01598,45.00562,134.969,-2.47997
2031,19.99825,484.625,3.82172,235.92,0.0162,50.00625,844.963,-7.50961
2089,19.99816,488.686,3.7415,244.004,0.01533,50.00625,554.974,-5.32306
2147,19.99802,504.679,3.5239,221.538,0.01591,50.00625,264.9855,-3.24538
2205,19.9971,525.078,3.28477,190.5556,0.01724,55.00687,974.979,-8.59919
2263,19.99779,499.955,3.58521,228.397,0.0157,55.00687,684.99,-6.25316
2321,19.99773,494.149,3.65831,240.455,0.01521,55.00687,394.954,-4.30128
2379,19.99789,471.028,4.07203,231.774,0.01757,55.00687,104.9655,-2.40908
2437,19.99793,512.066,3.41804,219.8611,0.01555,60.0075,814.959,-7.41849
2495,19.99813,505.7909,3.48455,237.507,0.01467,60.0075,524.97,-5.22316
2553,19.99791,406.614,5.63326,234.545,0.02402,60.0075,234.982,-3.12073
2611,19.99789,494.985,3.67931,218.658,0.01683,65.00813,944.975,-8.50587
2669,19.99752,516.162,3.36562,216.049,0.01558,65.00813,654.987,-6.11083
2727,19.99798,492.989,3.68528,234.727,0.0157,65.00813,364.998,-4.23641
2785,19.99806,511.645,3.42629,218.415,0.01569,65.00813,74.96175,-2.31296
2843,19.99778,497.573,3.62261,228.15,0.01588,70.00875,784.955,-7.25367
2901,19.99795,490.8266,3.74435,220.22,0.017,70.00875,494.967,-5.11472
2959,19.99816,494.319,3.68352,222.478,0.01656,70.00875,204.978,-3.09007
3017,19.99805,478.639,3.93601,230.009,0.01711,75.00938,914.9715,-8.33688
3075,19.99801,474.886,4.01513,224.1408,0.01791,75.00938,624.983,-6.06326
3133,19.99786,493.66,3.66354,242.279,0.01512,75.00938,334.994,-4.06035
3191,19.99788,490.9403,3.72319,231.675,0.01607,75.00938,44.958,-2.26492
3249,19.9978,503.075,3.54913,220.875,0.01607,80.01,754.999,-7.21268
3307,19.9979,484.953,3.82224,232.164,0.01646,80.01,464.963,-5.03119
3365,19.99763,467.746,4.16761,216.2223,0.01927,80.01,174.974,-3.02761
3423,19.99739,494.849,3.6722,224.072,0.01639,85.01062,884.968,-8.19514
3481,19.99768,483.242,3.86598,223.958,0.01726,85.01062,594.979,-5.89844
3539,19.99768,460.236,4.27193,237.169,0.01801,85.01062,304.9905,-3.96306
3597,19.99769,496.626,3.66427,212.328,0.01726,85.01062,14.95425,-2.18415
3655,19.99776,474.701,4.0285,219.237,0.01838,90.01125,724.995,-6.99596
3713,19.99796,490.0382,3.77791,209.443,0.01804,90.01125,434.959,-4.95067
3771,19.99795,473.455,3.99865,248.068,0.01612,90.01125,144.9705,-2.87748
3829,19.99829,509.587,3.44444,226.34,0.01522,95.01187,854.964,-8.10335
3887,19.99785,487.353,3.77213,238.204,0.01584,95.01187,564.975,-5.90656
3945,19.99809,482.527,3.85839,235.454,0.01639,95.01187,274.987,-3.84897
4003,19.9977,487.997,3.81922,206.183,0.01852,100.0125,984.98,-9.11645
4061,19.99793,497.832,3.59875,241.847,0.01488,100.0125,694.992,-6.87933
4119,19.99814,492.856,3.67201,245.443,0.01496,100.0125,404.955,-4.90355
4177,19.99733,477.884,3.97208,218.242,0.0182,100.0125,114.967,-2.90368
4235,19.99797,489.576,3.73499,238.485,0.01566,105.013,824.96,-8.0303
4293,19.99766,493.282,3.67671,237.276,0.0155,105.013,534.972,-5.83705
4351,19.99737,507.382,3.47002,230.865,0.01503,105.013,244.983,-3.74418
4409,19.99801,493.7636,3.68349,227.902,0.01616,110.014,954.9765,-9.10608
4467,19.99815,500.772,3.58845,218.446,0.01643,110.014,664.988,-6.7153
4525,19.9977,495.427,3.65194,231.042,0.01581,110.014,374.999,-4.78793
4583,19.99821,491.1059,3.72551,228.5948,0.0163,110.014,84.963,-2.88614
4641,19.99805,489.943,3.73967,231.617,0.01615,115.014,794.9565,-7.90269
4699,19.9979,488.561,3.74424,243.5035,0.01538,115.014,504.968,-5.71056
4757,19.99765,498.569,3.62908,214.732,0.0169,115.014,214.979,-3.64966
4815,19.99738,499.071,3.60883,222.03,0.01625,120.015,924.973,-8.89919
4873,19.99786,500.785,3.57172,228.897,0.0156,120.015,634.984,-6.67301
4931,19.99762,500.984,3.61181,203.551,0.01774,120.015,344.9955,-4.65444
4989,19.99757,489.7751,3.77369,213.7875,0.01765,120.015,54.95925,-2.85514
5047,19.99817,497.376,3.64543,216.2268,0.01686,125.016,764.953,-7.72009
5105,19.99771,479.746,3.92845,223.424,0.01758,125.016,474.964,-5.62201
5163,19.99713,501.599,3.59642,206.5251,0.01741,125.016,184.9755,-3.56745
5221,19.99727,512.462,3.45854,192.843,0.01793,130.016,894.969,-8.78367
5279,19.9976,496.516,3.67199,209.14,0.01756,130.016,604.98,-6.50844
5337,19.99823,510.103,3.44084,223.625,0.01539,130.016,314.992,-4.52251
5395,19.99747,491.4239,3.759,207.274,0.01814,130.016,24.9555,-2.7528
5453,19.99795,472.242,4.06373,224.421,0.01811,135.017,734.997,-7.64638
5511,19.9975,504.142,3.55341,208.654,0.01703,135.017,444.96,-5.51749
5569,19.99824,479.775,3.92232,226.473,0.01732,135.017,154.972,-3.58399
5627,19.998,488.453,3.773,226.399,0.01667,140.0175,864.965,-8.7004
5685,19.99795,489.693,3.74218,232.601,0.01609,140.0175,574.977,-6.48388
5743,19.99757,509.272,3.4731,210.623,0.01649,140.0175,284.988,-4.40092
5801,19.99755,490.341,3.76006,215.985,0.01741,145.018,994.9815,-9.70611
5859,19.99789,495.992,3.63638,235.5,0.01544,145.018,704.993,-7.47917
5917,19.99741,500.013,3.59464,221.745,0.01621,145.018,414.957,-5.47097
5975,19.99781,485.426,3.84585,214.732,0.01791,145.018,124.968,-3.48993
6033,19.99784,486.45,3.79388,233.992,0.01621,150.019,834.9615,-8.59874
6091,19.9981,483.558,3.84262,234.271,0.0164,150.019,544.973,-6.38202
6149,19.99804,488.503,3.74273,245.2256,0.01526,150.019,254.984,-4.30153
6207,19.99792,506.049,3.48175,236.72,0.01471,155.019,964.978,-9.65007
6265,19.99791,477.396,3.95827,229.988,0.01721,155.019,674.989,-7.30228
6323,19.99765,496.865,3.66461,210.079,0.01744,155.019,384.953,-5.29147
6381,19.99779,489.149,3.78785,211.952,0.01787,155.019,94.96425,-3.41966
6439,19.99803,496.294,3.62771,238.231,0.01523,160.02,804.958,-8.46922
6497,19.99805,498.7944,3.61935,218.37,0.01657,160.02,514.969,-6.23294
6555,19.99782,457.1913,4.29732,256.697,0.01674,160.02,224.9805,-4.12554
6613,19.99779,486.986,3.79565,227.518,0.01668,165.021,934.974,-9.54423
6671,19.99773,461.858,4.26228,226.185,0.01884,165.021,644.985,-7.22422
6729,19.99805,482.631,3.89946,212.38,0.01836,165.021,354.997,-5.18973
6787,19.99796,505.295,3.5184,219.152,0.01605,165.021,64.9605,-3.37172
6845,19.99784,492.214,3.75596,202.444,0.01855,170.021,774.954,-8.30439
6903,19.99794,464.035,4.19118,239.777,0.01748,170.021,484.965,-6.21992
6961,19.99797,481.231,3.91275,217.9856,0.01795,170.021,194.977,-4.11456
7019,19.9976,489.084,3.77336,220.1561,0.01714,175.022,904.97,-9.35642
7077,19.99795,468.656,4.14517,218.317,0.01899,175.022,614.982,-7.08675
7135,19.99776,455.287,4.39167,229.145,0.01917,175.022,324.993,-5.15201
7193,19.99772,491.949,3.75426,205.351,0.01828,175.022,34.95675,-3.36385
7251,19.99838,510.296,3.43674,224.557,0.0153,180.0225,744.998,-8.19084
7309,19.99789,518.179,3.35029,207.774,0.01612,180.0225,454.962,-6.07858
7367,19.99782,477.602,3.97223,220.753,0.01799,180.0225,164.973,-4.05473
7425,19.99791,504.711,3.51913,224.329,0.01569,185.023,874.9665,-9.28011
7483,19.99805,493.733,3.68386,227.982,0.01616,185.023,584.978,-7.05321
7541,19.99781,495.142,3.68096,216.282,0.01702,185.023,294.989,-4.97
7599,19.99815,486.275,3.78788,239.714,0.0158,185.023,4.953,-3.30705
7657,19.99818,491.061,3.72429,229.8,0.01621,190.024,714.994,-8.06929
7715,19.99816,498.211,3.6118,228.7404,0.01579,190.024,424.958,-6.0183
7773,19.99798,487.1708,3.84297,201.8517,0.01904,190.024,134.969,-4.01451
7831,19.99811,487.344,3.77012,239.6504,0.01573,195.024,844.963,-9.16574
7889,19.998,494.04,3.68416,224.768,0.01639,195.024,554.974,-6.94264
7947,19.9976,492.196,3.72987,215.724,0.01729,195.024,264.9855,-4.86137
8005,19.99819,490.505,3.74014,225.727,0.01657,200.025,974.979,-10.24704
8063,19.99805,480.588,3.94978,206.0334,0.01917,200.025,684.99,-7.87213
8121,19.99771,489.779,3.74849,227.824,0.01645,200.025,394.954,-5.90229
8179,19.99814,497.803,3.61966,227.764,0.01589,200.025,104.9655,-3.99627
8237,19.99813,491.867,3.70255,235.299,0.01574,205.026,814.959,-9.03911
8295,19.99773,511.724,3.458,198.802,0.01739,205.026,524.97,-6.8281
8353,19.99763,469.649,4.10992,225.8128,0.0182,205.026,234.982,-4.7823
8411,19.99794,506.254,3.51962,209.72,0.01678,210.026,944.975,-10.06671
8469,19.99804,501.518,3.56183,228.048,0.01562,210.026,654.987,-7.80465
8527,19.99761,465.266,4.24568,204.695,0.02074,210.026,364.998,-5.83092
8585,19.99788,485.236,3.8242,228.17,0.01676,210.026,74.96175,-3.99064
8643,19.99818,494.93,3.66749,226.248,0.01621,215.027,784.955,-8.91514
8701,19.99775,513.781,3.42148,202.452,0.0169,215.027,494.967,-6.7114
8759,19.99808,492.522,3.69052,236.2508,0.01562,215.027,204.978,-4.67711
8817,19.99775,487.697,3.80482,215.834,0.01763,220.0275,914.9715,-9.94644
8875,19.99788,491.22,3.74182,218.014,0.01716,220.0275,624.983,-7.64627
8933,19.99806,493.384,3.69227,226.26,0.01632,220.0275,334.994,-5.66272
8991,19.99801,490.071,3.73145,235.496,0.01585,220.0275,44.958,-3.82953
9049,19.99813,510.172,3.44809,218.088,0.01581,225.028,754.999,-8.82799
9107,19.99831,487.508,3.77656,233.807,0.01615,225.028,464.963,-6.65504
9165,19.99772,462.524,4.2575,222.316,0.01915,225.028,174.974,-4.65125
9223,19.99778,490.328,3.78561,203.375,0.01861,230.029,884.968,-9.82333
9281,19.99769,490.783,3.72441,232.505,0.01602,230.029,594.979,-7.57321
9339,19.99767,488.1122,3.80135,213.9832,0.01776,230.029,304.9905,-5.55608
9397,19.99807,497.287,3.62509,229.48,0.0158,230.029,14.95425,-3.87442
9455,19.99827,489.728,3.75186,226.399,0.01657,235.029,724.995,-8.6318
9513,19.99822,489.9592,3.72693,239.725,0.01555,235.029,434.959,-6.61121
9571,19.99765,504.382,3.54077,213.849,0.01656,235.029,144.9705,-4.58185
9629,19.99757,496.2765,3.63287,234.7953,0.01547,240.03,854.964,-9.77532
9687,19.99789,490.854,3.7438,220.272,0.017,240.03,564.975,-7.52333
9745,19.99803,477.66,3.94548,234.505,0.01682,240.03,274.987,-5.44955
9803,19.99773,479.59,3.94414,216.9063,0.01818,245.031,984.98,-10.77451
9861,19.99749,500.212,3.62272,204.167,0.01774,245.031,694.992,-8.47555
9919,19.99751,475.612,3.98857,231.015,0.01727,245.031,404.955,-6.45834
9977,19.99799,483.7395,3.86289,221.021,0.01748,245.031,114.967,-4.50539
10035,19.99825,493.515,3.68404,230.091,0.01601,250.031,824.96,-9.62479
10093,19.99774,489.049,3.7876,212.923,0.01779,250.031,534.972,-7.47438
10151,19.99811,480.004,3.89056,242.645,0.01603,250.031,244.983,-5.32448
10209,19.99775,496.617,3.65092,219.978,0.0166,255.032,954.9765,-10.70238
10267,19.9977,506.281,3.49878,222.264,0.01574,255.032,664.988,-8.45282
10325,19.99793,495.814,3.65797,223.412,0.01637,255.032,374.999,-6.42585
10383,19.99836,489.696,3.74383,231.599,0.01617,255.032,84.963,-4.5079
10441,19.99782,484.445,3.81929,239.31,0.01596,260.0325,794.9565,-9.53189
10499,19.99773,489.99,3.77286,212.372,0.01777,260.0325,504.968,-7.32435
10557,19.99825,485.707,3.80569,234.488,0.01623,260.0325,214.979,-5.24664
10615,19.99813,523.346,3.27625,209.964,0.0156,265.033,924.973,-10.6141
10673,19.99751,516.753,3.37715,203.545,0.01659,265.033,634.984,-8.25145
10731,19.99815,476.548,3.96839,232.865,0.01704,265.033,344.9955,-6.3267
10789,19.99758,472.55,4.06125,222.768,0.01823,265.033,54.95925,-4.50325
10847,19.99792,504.8014,3.5146,226.453,0.01552,270.034,764.953,-9.36903
10905,19.9974,497.102,3.64766,217.346,0.01678,270.034,474.964,-7.24703
10963,19.99783,467.3189,4.16735,220.034,0.01894,270.034,184.9755,-5.19855
11021,19.99808,503.795,3.51878,234.075,0.01503,275.034,894.969,-10.494
11079,19.99806,495.905,3.62784,242.508,0.01496,275.034,604.98,-8.21
11137,19.99784,481.065,3.90298,224.555,0.01738,275.034,314.992,-6.13625
11195,19.99816,491.134,3.72337,229.623,0.01622,275.034,24.9555,-4.41226
11253,19.99819,506.099,3.51501,213.839,0.01644,280.035,734.997,-9.20662
11311,19.9978,496.907,3.64812,218.925,0.01666,280.035,444.96,-7.17153
11369,19.99769,480.991,3.90751,222.823,0.01754,280.035,154.972,-5.15508
11427,19.9983,506.275,3.51764,210.721,0.01669,285.036,864.965,-10.32164
11485,19.99769,497.828,3.62364,224.934,0.01611,285.036,574.977,-8.10075
11543,19.99796,490.627,3.74243,223.188,0.01677,285.036,284.988,-6.02399
11601,19.99756,485.2218,3.83081,224.523,0.01706,290.036,994.9815,-11.3868
11659,19.99823,492.333,3.70054,231.721,0.01597,290.036,704.993,-9.11693
11717,19.9959,1623.81,0.33402,63.24671,0.00528,290.036,414.957,-5.83507
11775,19.99767,478.469,3.9599,219.072,0.01808,290.036,124.968,-5.11247
11833,19.99788,470.551,4.08015,232.218,0.01757,295.037,834.9615,-10.28219
11891,19.99769,466.985,4.19474,211.133,0.01987,295.037,544.973,-8.02406
11949,19.99822,492.879,3.67646,241.993,0.01519,295.037,254.984,-5.94954
12007,19.99742,492.6,3.71174,222.162,0.01671,300.0375,964.978,-11.28257
12065,19.99791,486.297,3.81731,221.886,0.0172,300.0375,674.989,-9.0185
12123,19.99767,495.44,3.66903,220.352,0.01665,300.0375,384.953,-6.96073
12181,19.99774,468.222,4.12531,231.762,0.0178,300.0375,94.96425,-5.14272
12239,19.99827,491.337,3.72852,224.53,0.01661,305.038,804.958,-10.14669
12297,19.99756,491.679,3.71402,229.825,0.01616,305.038,514.969,-7.89852
12355,19.99785,483.337,3.87768,216.972,0.01787,305.038,224.9805,-5.88719
12413,19.99758,496.9,3.63893,224.492,0.01621,310.039,934.974,-11.19774
12471,19.99764,486.291,3.82373,218.462,0.0175,310.039,644.985,-8.83114
12529,19.9982,502.093,3.56434,220.772,0.01614,310.039,354.997,-6.8577
12587,19.99772,482.664,3.89439,214.517,0.01815,310.039,64.9605,-4.99402
12645,19.99775,520.072,3.30913,217.792,0.01519,315.039,774.954,-9.96625
12703,19.99753,483.477,3.88398,212.609,0.01827,315.039,484.965,-7.82486
12761,19.99744,504.032,3.54853,212.387,0.01671,315.039,194.977,-5.7202
12819,19.99774,487.0154,3.80619,221.273,0.0172,320.04,904.97,-11.064
12877,19.99794,505.023,3.50301,232.232,0.01508,320.04,614.982,-8.77142
12935,19.99737,512.527,3.42335,212.052,0.01614,320.04,324.993,-6.7122
12993,19.99822,501.081,3.59083,214.221,0.01676,320.04,34.95675,-5.03839
13051,19.99767,481.16,3.92732,211.518,0.01857,325.041,744.998,-9.79761
13109,19.99807,492.899,3.68416,236.456,0.01558,325.041,454.962,-7.72855
13167,19.99788,501.383,3.56954,224.323,0.01591,325.041,164.973,-5.70891
13225,19.9979,497.675,3.605,239.0622,0.01508,330.041,874.9665,-10.97785
13283,19.99776,503.63,3.52787,229.358,0.01538,330.041,584.978,-8.7157
13341,19.99783,478.841,3.954,218.685,0.01808,330.041,294.989,-6.5996
13399,19.99791,487.776,3.76792,236.3874,0.01594,330.041,4.953,-4.89254
13457,19.9979,484.223,3.85539,220.551,0.01748,335.042,714.994,-9.74888
13515,19.998,484.563,3.80836,245.203,0.01553,335.042,424.958,-7.67756
13573,19.99779,526.64,3.23357,209.148,0.01546,335.042,134.969,-5.62256
13631,19.99811,489.765,3.73108,239.052,0.01561,340.0425,844.963,-10.83736
13689,19.99756,502.148,3.5681,217.869,0.01638,340.0425,554.974,-8.56199
13747,19.99768,487.695,3.76795,237.2088,0.01588,340.0425,264.9855,-6.55412
13805,19.99757,514.18,3.40533,208.576,0.01633,345.043,974.979,-11.89933
13863,19.99792,504.56,3.5528,205.517,0.01729,345.043,684.99,-9.58563
13921,19.99784,496.413,3.65922,217.0587,0.01686,345.043,394.954,-7.53257
13979,19.99798,476.564,3.9958,218.479,0.01829,345.043,104.9655,-5.71755
14037,19.99769,484.475,3.84199,225.445,0.01704,350.044,814.959,-10.79418
14095,19.9976,493.804,3.70601,214.394,0.01729,350.044,524.97,-8.48585
14153,19.99796,476.721,3.99532,217.331,0.01838,350.044,234.982,-6.36319
14211,19.99797,488.577,3.80994,205.909,0.0185,355.044,944.975,-11.77187
14269,19.99816,484.078,3.85844,220.292,0.01752,355.044,654.987,-9.46095
14327,19.99826,503.772,3.53862,220.896,0.01602,355.044,364.998,-7.44377
14385,19.9978,413.55,5.48161,218.352,0.0251,355.044,74.96175,-5.66288
14443,19.99774,491.385,3.73614,219.641,0.01701,360.045,784.955,-10.63165
14501,19.99785,462.349,4.2717,217.7748,0.01962,360.045,494.967,-8.43679
14559,19.99786,470.588,4.09885,222.543,0.01842,360.045,204.978,-6.30194
14617,19.99785,507.59,3.49086,214.963,0.01624,365.046,914.9715,-11.74454
14675,19.998,496.42,3.66441,214.099,0.01712,365.046,624.983,-9.32859
14733,19.99765,498.4332,3.62959,215.6675,0.01683,365.046,334.994,-7.32483
14791,19.99813,473.399,4.01639,238.121,0.01687,365.046,44.958,-5.54371
14849,19.99717,564.195,2.88908,148.2972,0.01948,370.046,754.999,-10.1599
14907,19.99803,514.165,3.38487,222.168,0.01524,370.046,464.963,-8.31752
14965,19.99761,483.9898,3.85601,222.3378,0.01734,370.046,174.974,-6.32841
15023,19.99802,495.085,3.65532,232.426,0.01573,375.047,884.968,-11.54894
15081,19.99828,508.071,3.46754,225.614,0.01537,375.047,594.979,-9.31216
15139,19.99745,486.987,3.81368,217.478,0.01754,375.047,304.9905,-7.1912
15197,19.99717,502.614,3.58257,205.519,0.01743,375.047,14.95425,-5.49625
15255,19.9974,501.197,3.59104,212.982,0.01686,380.0475,724.995,-10.33462
15313,19.99795,498.158,3.59819,238.595,0.01508,380.0475,434.959,-8.27921
15371,19.99778,481.1,3.91989,215.582,0.01818,380.0475,144.9705,-6.25138
15429,19.99799,474.577,4.01132,229.025,0.01751,385.0005,854.964,-11.45867
15487,19.99813,491.092,3.75379,212.769,0.01764,385.0005,564.975,-9.15245
15545,19.99763,506.0202,3.50352,221.695,0.0158,385.0005,274.987,-7.13719
15603,19.99738,496.796,3.6751,205.191,0.01791,390.001,984.98,-12.46701
15661,19.99775,504.027,3.55189,210.534,0.01687,390.001,694.992,-10.17929
15719,19.99772,482.3487,3.86584,232.799,0.01661,390.001,404.955,-8.15255
15777,19.99825,510.452,3.45432,211.598,0.01632,390.001,114.967,-6.18737
15835,19.99804,490.321,3.72753,235.397,0.01584,395.002,824.96,-11.40786
15893,19.99824,502.376,3.55179,226.0685,0.01571,395.002,534.972,-9.14928
15951,19.99768,485.584,3.85149,210.592,0.01829,395.002,244.983,-7.0154
16009,19.99764,506.741,3.50438,214.391,0.01635,400.002,954.9765,-12.37977
16067,19.99761,500.0328,3.61725,208.541,0.01735,400.002,664.988,-10.05434
16125,19.99756,500.955,3.59907,210.59,0.01709,400.002,374.999,-8.03453
16183,19.99773,483.133,3.86175,227.344,0.01699,400.002,84.963,-6.1904
16241,19.99813,487.294,3.76052,246.742,0.01524,405.003,794.9565,-11.21939
16299,19.9976,466.808,4.17998,218.849,0.0191,405.003,504.968,-9.0648
16357,19.99784,484.631,3.84508,222.294,0.0173,405.003,214.979,-6.91786
16415,19.99808,498.375,3.61116,227.488,0.01587,410.004,924.973,-12.34262
16473,19.998,478.802,3.9539,219.1015,0.01805,410.004,634.984,-9.93989
16531,19.99773,496.511,3.64871,222.295,0.01641,410.004,344.9955,-7.96354
16589,19.9979,493.628,3.69004,225.211,0.01638,410.004,54.95925,-6.15642
16647,19.99795,490.858,3.74024,222.257,0.01683,415.004,764.953,-11.11384
16705,19.99758,496.413,3.66065,216.21,0.01693,415.004,474.964,-8.90106
16763,19.9976,481.227,3.91225,218.23,0.01793,415.004,184.9755,-6.84596
16821,19.99791,501.078,3.57577,223.343,0.01601,420.005,894.969,-12.21372
16879,19.99762,492.724,3.72883,211.66,0.01762,420.005,604.98,-9.83524
16937,19.99788,491.249,3.72648,226.551,0.01645,420.005,314.992,-7.84639
16995,19.99771,488.579,3.79855,211.402,0.01797,420.005,24.9555,-6.072
17053,19.99808,506.5627,3.50384,216.412,0.01619,425.0055,734.997,-10.92962
17111,19.99771,493.078,3.70428,222.01,0.01669,425.0055,444.96,-8.86293
17169,19.99818,499.975,3.59076,224.654,0.01598,425.0055,154.972,-6.83173
17227,19.99808,494.354,3.67841,225.2,0.01633,430.006,864.965,-12.02688
17285,19.99814,509.497,3.4607,216.308,0.016,430.006,574.977,-9.83955
17343,19.99775,514.771,3.38324,217.371,0.01556,430.006,284.988,-7.7163
17401,19.99789,492.557,3.72725,213.974,0.01742,435.007,994.9815,-13.10125
17459,19.99773,491.364,3.72575,225.843,0.0165,435.007,704.993,-10.77446
17517,19.99837,496.789,3.6182,239.5412,0.0151,435.007,414.957,-8.7732
17575,19.99779,463.49,4.22702,227.325,0.01859,435.007,124.968,-6.77262
17633,19.99829,513.769,3.40741,210.998,0.01615,440.007,834.9615,-11.91922
17691,19.99826,499.507,3.60548,220.033,0.01639,440.007,544.973,-9.66208
17749,19.99761,488.126,3.81386,207.667,0.01837,440.007,254.984,-7.58285
17807,19.99776,483.825,3.85775,222.95,0.0173,445.008,964.978,-13.01099
17865,19.99781,489.684,3.77426,214.316,0.01761,445.008,674.989,-10.73065
17923,19.99806,493.801,3.69776,219.052,0.01688,445.008,384.953,-8.63449
17981,19.99799,498.5252,3.60752,228.318,0.0158,445.008,94.96425,-6.73471
18039,19.99818,479.748,3.92367,225.99,0.01736,450.009,804.958,-11.85763
18097,19.99817,517.197,3.35536,213.334,0.01573,450.009,514.969,-9.57942
18155,19.99769,472.82,4.07118,215.743,0.01887,450.009,224.9805,-7.50251
18213,19.99852,494.95,3.67066,224.162,0.01637,455.009,934.974,-12.87622
18271,19.99788,483.683,3.88266,211.551,0.01835,455.009,644.985,-10.56781
18329,19.99769,492.565,3.7212,217.162,0.01714,455.009,354.997,-8.52096
18387,19.99805,481.892,3.86406,238.691,0.01619,455.009,64.9605,-6.73772
18445,19.99805,497.032,3.62432,232.625,0.01558,460.01,774.954,-11.70585
18503,19.99807,497.806,3.61765,229.038,0.01579,460.01,484.965,-9.47982
18561,19.99779,472.217,4.06567,223.676,0.01818,460.01,194.977,-7.44926
18619,19.998,504.286,3.51998,228.047,0.01544,465.0105,904.97,-12.79932
18677,19.99776,467.73,4.1687,215.898,0.01931,465.0105,614.982,-10.42634
18735,19.99812,489.071,3.76077,227.551,0.01653,465.0105,324.993,-8.44247
18793,19.99749,494.483,3.65123,241.692,0.01511,465.0105,34.95675,-6.68873
18851,19.99809,492.038,3.72218,221.509,0.0168,470.011,744.998,-11.61064
18909,19.99737,506.985,3.51221,207.623,0.01692,470.011,454.962,-9.381
18967,19.9979,505.36,3.50813,225.1906,0.01558,470.011,164.973,-7.42715
19025,19.9981,503.026,3.54846,221.815,0.016,475.012,874.9665,-12.68014
19083,19.99786,504.414,3.52081,226.166,0.01557,475.012,584.978,-10.3993
19141,19.99771,495.336,3.67897,215.642,0.01706,475.012,294.989,-8.31503
19199,19.99752,495.02,3.67317,221.862,0.01656,475.012,4.953,-6.55291
19257,19.99785,492.988,3.7358,205.954,0.01814,480.012,714.994,-11.356
19315,19.99811,492.1563,3.69936,234.3158,0.01579,480.012,424.958,-9.36792
19373,19.99761,499.789,3.63427,201.713,0.01802,480.012,134.969,-7.32202
19431,19.99765,476.683,3.99713,216.765,0.01844,485.013,844.963,-12.52624
19489,19.99773,506.448,3.4761,236.5299,0.0147,485.013,554.974,-10.30967
19547,19.99808,492.129,3.70248,232.582,0.01592,485.013,264.9855,-8.17318
19605,19.99791,507.107,3.46788,235.482,0.01473,490.014,974.979,-13.58312
19663,19.99784,492.122,3.75085,205.622,0.01824,490.014,684.99,-11.28279
19721,19.99766,502.76,3.56726,212.826,0.01676,490.014,394.954,-9.24536
19779,19.99792,486.06,3.82376,220.577,0.01734,490.014,104.9655,-7.2896
19837,19.99769,486.993,3.81087,218.94,0.01741,495.014,814.959,-12.36018
19895,19.9977,480.363,3.9314,216.37,0.01817,495.014,524.97,-10.19298
19953,19.99797,503.681,3.54059,220.4815,0.01606,495.014,234.982,-8.12896
20011,19.99795,458.601,4.35311,216.1633,0.02014,500.015,944.975,-13.42469
20069,19.99806,493.984,3.6717,233.1837,0.01575,500.015,654.987,-11.15889
20127,19.99762,485.593,3.82881,222.129,0.01724,500.015,364.998,-9.09615
20185,19.99771,504.681,3.52456,221.057,0.01594,500.015,74.96175,-7.30069
20243,19.99772,487.618,3.79526,221.684,0.01712,505.0155,784.955,-12.25524
20301,19.99797,483.5591,3.86781,220.076,0.01757,505.0155,494.967,-10.10326
20359,19.99759,474.373,4.01435,229.356,0.0175,505.0155,204.978,-7.94956
20417,19.99794,499.007,3.61394,219.5897,0.01646,510.016,914.9715,-13.34971
20475,19.99803,471.26,4.10035,215.974,0.01899,510.016,624.983,-10.9649
20533,19.99813,508.502,3.51125,196.024,0.01791,510.016,334.994,-8.93673
20591,19.99795,493.266,3.68339,233.046,0.01581,510.016,44.958,-7.17866
20649,19.99822,497.644,3.62705,224.681,0.01614,515.017,754.999,-12.14833
20707,19.99688,495.633,3.68711,208.594,0.01768,515.017,464.963,-9.91364
20765,19.99771,487.2903,3.81617,213.559,0.01787,515.017,174.974,-7.87774
20823,19.99808,502.48,3.53754,234.779,0.01507,520.017,884.968,-13.25426
20881,19.99811,518.389,3.34315,210.479,0.01588,520.017,594.979,-10.84133
20939,19.998,490.146,3.74915,223.905,0.01674,520.017,304.9905,-8.84313
20997,19.99782,495.365,3.66465,223.692,0.01638,520.017,14.95425,-7.07808
21055,19.99762,468.539,4.14897,217.6044,0.01907,525.018,724.995,-11.96274
21113,19.998,473.485,4.02986,229.869,0.01753,525.018,434.959,-9.85273
21171,19.99811,487.161,3.80209,222.221,0.01711,525.018,144.9705,-7.85159
21229,19.99744,506.822,3.51006,210.268,0.01669,530.019,854.964,-13.05786
21287,19.9982,506.0645,3.49137,229.568,0.01521,530.019,564.975,-10.82063
21345,19.99818,500.333,3.58264,226.324,0.01583,530.019,274.987,-8.70795
21403,19.99787,468.315,4.15104,218.6464,0.01899,535.019,984.98,-14.13704
21461,19.99833,503.174,3.53073,232.219,0.0152,535.019,694.992,-11.78547
21519,19.9976,498.37,3.63047,215.72,0.01683,535.019,404.955,-9.79271
21577,19.99798,496.404,3.65452,219.8834,0.01662,535.019,114.967,-7.78376
21635,19.99811,493.324,3.67771,236.211,0.01557,540.02,824.96,-12.9842
21693,19.99744,502.965,3.56323,213.31,0.0167,540.02,534.972,-10.69834
21751,19.99755,495.374,3.72197,194.078,0.01918,540.02,244.983,-8.69252
21809,19.99754,498.8371,3.65687,198.097,0.01846,545.0205,954.9765,-14.00782
21867,19.99815,497.675,3.63602,218.934,0.01661,545.0205,664.988,-11.7182
21925,19.99771,508.969,3.48941,203.834,0.01712,545.0205,374.999,-9.63784
21983,19.99764,483.995,3.8468,227.375,0.01692,545.0205,84.963,-7.82423
22041,19.99764,480.66,3.89833,231.03,0.01687,550.021,794.9565,-12.82665
22099,19.99777,473.468,4.03847,225.572,0.0179,550.021,504.968,-10.608
22157,19.9974,492.438,3.74236,207.16,0.01807,550.021,214.979,-8.4869
22215,19.99831,486.006,3.8136,226.781,0.01682,555.022,924.973,-13.94394
22273,19.99792,508.043,3.46225,229.579,0.01508,555.022,634.984,-11.59038
22331,19.99813,495.894,3.65104,226.9372,0.01609,555.022,344.9955,-9.5203
22389,19.99805,504.379,3.52206,225.7011,0.0156,555.022,54.95925,-7.76454
22447,19.99782,499.842,3.64531,196.009,0.0186,560.022,764.953,-12.69319
22505,19.99825,498.298,3.59658,238.229,0.0151,560.022,474.964,-10.57329
22563,19.99779,497.925,3.62044,226.006,0.01602,560.022,184.9755,-8.49221
22621,19.99786,495.185,3.657,230.272,0.01588,565.023,894.969,-13.87846
22679,19.99811,509.6788,3.45868,215.899,0.01602,565.023,604.98,-11.4797
22737,19.99754,486.4703,3.83123,213.021,0.01799,565.023,314.992,-9.45012
22795,19.99787,478.376,3.96336,218.215,0.01816,565.023,24.9555,-7.71304
22853,19.99756,478.504,3.95171,222.867,0.01773,570.024,734.997,-12.54815
22911,19.99831,480.6213,3.86342,253.622,0.01523,570.024,444.96,-10.47404
22969,19.99832,480.2684,3.90055,233.8,0.01668,570.024,154.972,-8.47047
23027,19.99827,508.641,3.45954,225.388,0.01535,575.024,864.965,-13.65736
23085,19.99761,495.207,3.67351,219.914,0.0167,575.024,574.977,-11.39238
23143,19.99815,490.36,3.75539,218.41,0.01719,575.024,284.988,-9.32508
23201,19.99752,498.851,3.6289,212.319,0.01709,580.025,994.9815,-14.76752
23259,19.99745,492.757,3.72189,215.038,0.01731,580.025,704.993,-12.43355
23317,19.99806,484.824,3.80675,243.339,0.01564,580.025,414.957,-10.40218
23375,19.99837,495.474,3.65927,225.989,0.01619,580.025,124.968,-8.4668
23433,19.99781,489.007,3.76354,226.506,0.01662,585.0255,834.9615,-13.66153
23491,19.99777,496.597,3.66565,211.844,0.0173,585.0255,544.973,-11.28278
23549,19.99829,500.614,3.56933,232.3633,0.01536,585.0255,254.984,-9.25571
23607,19.99769,494.963,3.6763,220.577,0.01667,590.026,964.978,-14.6753
23665,19.99803,500.209,3.56949,236.574,0.01509,590.026,674.989,-12.33076
23723,19.99793,499.7727,3.5934,224.928,0.01598,590.026,384.953,-10.27383
23781,19.998,491.147,3.74223,218.458,0.01713,590.026,94.96425,-8.35256
23839,19.99803,488.283,3.8046,210.926,0.01804,595.027,804.958,-13.50566
23897,19.99761,502.392,3.58237,207.521,0.01726,595.027,514.969,-11.22799
23955,19.998,499.683,3.59066,227.601,0.01578,595.027,224.9805,-9.1329
24013,19.99811,491.3273,3.71118,235.367,0.01577,600.027,934.974,-14.58788
24071,19.99764,481.739,3.8969,221.47,0.0176,600.027,644.985,-12.29378
24129,19.99827,497.526,3.6091,237.842,0.01517,600.027,354.997,-10.24687
24187,19.99742,516.73,3.3635,212.192,0.01585,600.027,64.9605,-8.39064
24245,19.99767,518.856,3.34129,207.492,0.0161,605.028,774.954,-13.35124
24303,19.99727,488.63,3.76182,231.228,0.01627,605.028,484.965,-11.17192
24361,19.99773,482.406,3.8943,216.813,0.01796,605.028,194.977,-9.06376
24419,19.99847,492.872,3.69218,231.539,0.01595,610.029,904.97,-14.52444
24477,19.99801,499.521,3.60119,222.496,0.01619,610.029,614.982,-12.15863
24535,19.99796,488.022,3.80257,214.181,0.01775,610.029,324.993,-10.08197
24593,19.9976,488.993,3.76933,223.262,0.01688,610.029,34.95675,-8.30883
24651,19.99772,490.439,3.77677,206.682,0.01827,615.029,744.998,-13.22781
24709,19.9985,486.139,3.79308,237.875,0.01595,615.029,454.962,-11.12159
24767,19.99806,501.019,3.56635,230.138,0.0155,615.029,164.973,-9.1282
24825,19.99771,511.15,3.45697,203.989,0.01695,620.03,874.9665,-14.33606
24883,19.99777,520.774,3.30789,212.057,0.0156,620.03,584.978,-11.99902
24941,19.99752,494.63,3.7143,203.229,0.01828,620.03,294.989,-9.95848
24999,19.99726,504.439,3.53933,214.14,0.01653,620.03,4.953,-8.26297
25057,19.9981,476.675,3.97872,226.043,0.0176,625.0305,714.994,-13.09504
25115,19.99786,495.184,3.66407,225.823,0.01623,625.0305,424.958,-11.06124
25173,19.99786,491.38,3.72567,225.749,0.0165,625.0305,134.969,-9.07221
25231,19.99748,513.965,3.41209,206.339,0.01654,630.031,844.963,-14.30378
25289,19.99777,493.666,3.70776,214.682,0.01727,630.031,554.974,-11.98795
25347,19.99798,501.046,3.56287,232.2316,0.01534,630.031,264.9855,-9.92989
25405,19.99797,486.8487,3.83479,208.1603,0.01842,635.032,974.979,-15.30915
25463,19.99817,497.971,3.61574,228.615,0.01582,635.032,684.99,-12.97659
25521,19.99794,491.669,3.70266,237.319,0.0156,635.032,394.954,-10.98253
25579,19.99771,500.6297,3.57318,229.495,0.01557,635.032,104.9655,-9.05007
25637,19.99785,486.939,3.81045,219.675,0.01735,640.032,814.959,-14.18614
25695,19.9978,498.299,3.6257,219.179,0.01654,640.032,524.97,-11.89292
25753,19.99757,493.045,3.73296,206.861,0.01805,640.032,234.982,-9.78918
25811,19.99765,499.7466,3.62787,205.315,0.01767,645.033,944.975,-15.27308
25869,19.99765,497.304,3.64687,215.989,0.01688,645.033,654.987,-12.88051
25927,19.99817,494.766,3.66479,229.5984,0.01596,645.033,364.998,-10.86053
25985,19.99768,523.931,3.26686,210.961,0.01549,645.033,74.96175,-8.9295
26043,19.99775,496.431,3.66459,213.869,0.01713,650.034,784.955,-14.05362
26101,19.99756,497.881,3.6271,222.27,0.01632,650.034,494.967,-11.80354
26159,19.99758,501.303,3.59687,208.825,0.01722,650.034,204.978,-9.71829
26217,19.99783,500.116,3.58946,224.048,0.01602,655.034,914.9715,-15.1983
26275,19.9979,490.233,3.77781,207.872,0.01817,655.034,624.983,-12.7553
26333,19.99789,482.483,3.88874,218.966,0.01776,655.034,334.994,-10.72931
26391,19.99786,488.151,3.7563,239.912,0.01566,655.034,44.958,-8.98167
26449,19.99754,509.035,3.48631,205.007,0.01701,660.035,754.999,-13.98846
26507,19.99755,493.49,3.69328,224.551,0.01645,660.035,464.963,-11.77518
26565,19.99799,501.36,3.57637,220.258,0.01624,660.035,174.974,-9.76658
26623,19.99792,497.464,3.62945,224.904,0.01614,665.0355,884.968,-15.05042
26681,19.99771,503.473,3.55817,211.77,0.0168,665.0355,594.979,-12.68769
26739,19.99795,486.634,3.79247,232.976,0.01628,665.0355,304.9905,-10.65005
26797,19.99787,486.48,3.81311,222.481,0.01714,665.0355,14.95425,-8.91958
26855,19.99743,472.499,4.06638,220.745,0.01842,670.036,724.995,-13.81003
26913,19.9981,484.237,3.829,235.484,0.01626,670.036,434.959,-11.70644
26971,19.99779,492.246,3.74899,205.514,0.01824,670.036,144.9705,-9.73337
27029,19.99743,493.943,3.71695,207.467,0.01792,675.037,854.964,-14.95604
27087,19.99774,490.386,3.75874,216.31,0.01738,675.037,564.975,-12.6349
27145,19.99755,507.1534,3.48793,220.893,0.01579,675.037,274.987,-10.54673
27203,19.99761,490.336,3.75327,219.731,0.01708,680.037,984.98,-16.00606
27261,19.99804,481.37,3.88535,231.398,0.01679,680.037,694.992,-13.65239
27319,19.9976,482.713,3.87964,221.562,0.01751,680.037,404.955,-11.63793
27377,19.99778,480.111,3.94904,210.178,0.01879,680.037,114.967,-9.62779
27435,19.99808,491.96,3.71996,223.542,0.01664,685.038,824.96,-14.92113
27493,19.99802,499.73,3.59306,225.576,0.01593,685.038,534.972,-12.60652
27551,19.99752,481.411,3.90737,219.046,0.01784,685.038,244.983,-10.46063
27609,19.99742,506.682,3.5147,208.789,0.01683,690.039,954.9765,-15.97792
27667,19.99752,492.384,3.72253,218.043,0.01707,690.039,664.988,-13.60321
27725,19.99798,494.193,3.72232,202.866,0.01835,690.039,374.999,-11.48952
27783,19.99766,482.546,3.88755,218.9757,0.01775,690.039,84.963,-9.64373
27841,19.99785,490.8867,3.75102,216.002,0.01737,695.039,794.9565,-14.7422
27899,19.99785,488.477,3.8074,207.919,0.01831,695.039,504.968,-12.49466
27957,19.99757,505.803,3.52967,207.823,0.01698,695.039,214.979,-10.3795
28015,19.99751,508.147,3.47902,217.174,0.01602,700.04,924.973,-15.85811
28073,19.99751,503.766,3.55462,211.218,0.01683,700.04,634.984,-13.46934
28131,19.99731,482.681,3.86415,230.382,0.01677,700.04,344.9955,-11.41574
28189,19.9973,506.736,3.50778,212.35,0.01652,700.04,54.95925,-9.65366
28247,19.99792,501.732,3.57465,217.811,0.01641,705.0405,764.953,-14.6569
28305,19.99758,507.218,3.49426,216.241,0.01616,705.0405,474.964,-12.3887
28363,19.99812,493.936,3.67116,234.055,0.01569,705.0405,184.9755,-10.42572
28421,19.99798,501.992,3.55164,230.05,0.01544,710.041,894.969,-15.77063
28479,19.99753,489.067,3.7844,214.395,0.01765,710.041,604.98,-13.34742
28537,19.99827,503.895,3.55048,212.56,0.0167,710.041,314.992,-11.30306
28595,19.99745,509.39,3.4487,225.239,0.01531,710.041,24.9555,-9.60865
28653,19.9975,489.007,3.78191,216.228,0.01749,715.042,734.997,-14.50037
28711,19.99807,490.8881,3.71512,237.47,0.01564,715.042,444.96,-12.38325
28769,19.99789,498.334,3.61668,224.355,0.01612,715.042,154.972,-10.32047
28827,19.99782,486.117,3.81091,227.189,0.01677,720.042,864.965,-15.60287
28885,19.99774,501.395,3.56189,229.223,0.01554,720.042,574.977,-13.31594
28943,19.99776,498.344,3.6438,208.624,0.01747,720.042,284.988,-11.23868
29001,19.99739,514.623,3.40133,207.142,0.01642,725.043,994.9815,-16.67766
29059,19.9981,509.91,3.45897,213.5957,0.01619,725.043,704.993,-14.34616
29117,19.99802,501.696,3.54453,238.2925,0.01487,725.043,414.957,-12.27625
29175,19.99749,475.276,4.00578,225.185,0.01779,725.043,124.968,-10.30985
29233,19.99758,504.138,3.53987,216.597,0.01634,730.044,834.9615,-15.58227
29291,19.99804,475.569,4.021,215.242,0.01868,730.044,544.973,-13.20233
29349,19.99763,508.388,3.49321,206.544,0.01691,730.044,254.984,-11.10456
29407,19.99755,503.822,3.55166,212.435,0.01672,735.044,964.978,-16.63667
29465,19.99751,486.448,3.83892,209.441,0.01833,735.044,674.989,-14.18832
29523,19.99738,479.287,3.95911,212.339,0.01865,735.044,384.953,-12.13923
29581,19.99764,503.0777,3.55618,216.49,0.01643,735.044,94.96425,-10.26335
29639,19.99787,490.998,3.75229,214.349,0.01751,740.045,804.958,-15.40233
29697,19.99746,509.87,3.46908,207.792,0.01669,740.045,514.969,-13.11369
29755,19.99724,480.64,3.91272,223.297,0.01752,740.045,224.9805,-10.99864
29813,19.99757,494.733,3.63938,247.517,0.0147,745.0455,934.974,-16.5037
29871,19.99798,518.01,3.3415,215.026,0.01554,745.0455,644.985,-14.14566
29929,19.99768,475.328,4.00803,223.585,0.01793,745.0455,354.997,-12.08829
29987,19.99739,503.8327,3.55371,211.144,0.01683,745.0455,64.9605,-10.22918
30045,19.99793,492.9913,3.68826,232.752,0.01585,750.046,774.954,-15.27688
30103,19.9977,490.39,3.75874,216.273,0.01738,750.046,484.965,-13.04246
30161,19.99783,476.979,4.02758,201.139,0.02002,750.046,194.977,-10.99495
30219,19.99751,487.981,3.80403,213.732,0.0178,755.047,904.97,-16.43674
30277,19.99786,495.528,3.68792,209.166,0.01763,755.047,614.982,-13.98959
30335,19.9975,469.639,4.12445,219.049,0.01883,755.047,324.993,-11.93632
30393,19.99745,508.19,3.49621,206.489,0.01693,755.047,34.95675,-10.19012
30451,19.99753,517.147,3.38203,197.571,0.01712,760.047,744.998,-15.12435
30509,19.99805,472.979,4.03544,231.884,0.0174,760.047,454.962,-12.9655
30567,19.99782,500.406,3.60623,211.401,0.01706,760.047,164.973,-10.9329
30625,19.99778,510.332,3.42372,233.576,0.01466,765,874.9665,-16.29872
30683,19.99743,463.572,4.23341,223.616,0.01893,765,584.978,-13.97416
30741,19.99767,486.195,3.8114,226.1284,0.01686,765,294.989,-11.86403
30799,19.99789,493.297,3.71775,212.567,0.01749,765,4.953,-10.10745
30857,19.99803,499.151,3.5962,229.378,0.01568,770.001,714.994,-15.06589
30915,19.9979,502.285,3.55698,223.544,0.01591,770.001,424.958,-12.93759
30973,19.9975,497.313,3.65923,209.1163,0.0175,770.001,134.969,-10.90039
31031,19.99767,494.4064,3.6931,216.117,0.01709,775.002,844.963,-16.13096
31089,19.99783,492.251,3.7364,211.801,0.01764,775.002,554.974,-13.81283
31147,19.99804,481.298,3.89622,226.019,0.01724,775.002,264.9855,-11.79601
31205,19.9975,494.995,3.6926,211.1967,0.01748,780.002,974.979,-17.19517
31263,19.99831,440.218,4.74986,222.123,0.02138,780.002,684.99,-14.87711
31321,19.99765,487.355,3.8292,206.659,0.01853,780.002,394.954,-12.76098
31379,19.99752,494.86,3.66818,226.435,0.0162,780.002,104.9655,-10.86382
31437,19.99789,484.634,3.84907,220.136,0.01748,785.003,814.959,-16.0021
31495,19.99784,525.65,3.25351,204.619,0.0159,785.003,524.97,-13.68661
31553,19.99778,482.933,3.90003,209.569,0.01861,785.003,234.982,-11.64241
31611,19.99823,487.307,3.77873,234.534,0.01611,790.0035,944.975,-17.12995
31669,19.99754,492.379,3.74391,206.89,0.0181,790.0035,654.987,-14.70917
31727,19.99754,497.967,3.65398,206.406,0.0177,790.0035,364.998,-12.63823
31785,19.99769,487.309,3.81349,214.757,0.01776,790.0035,74.96175,-10.7937
31843,19.99802,494.5522,3.66253,233.252,0.0157,795.004,784.955,-15.93143
31901,19.99824,507.594,3.48639,217.767,0.01601,795.004,494.967,-13.63032
31959,19.99764,508.9266,3.47,215.6495,0.01609,795.004,204.978,-11.54138
32017,19.99785,479.302,3.95038,216.4061,0.01825,800.005,914.9715,-16.96249
32075,19.998,490.451,3.76255,213.748,0.0176,800.005,624.983,-14.61764
32133,19.99786,475.928,3.98682,228.905,0.01742,800.005,334.994,-12.5612
32191,19.9981,505.357,3.50387,228.149,0.01536,800.005,44.958,-10.84265
32249,19.99781,500.5761,3.61227,206.6695,0.01748,805.005,754.999,-15.71589
32307,19.99777,478.448,3.96592,216.3303,0.01833,805.005,464.963,-13.51022
32365,19.9978,489.312,3.75513,228.492,0.01643,805.005,174.974,-11.54284
32423,19.9975,503.298,3.57353,204.7424,0.01745,810.006,884.968,-16.85806
32481,19.99788,484.661,3.84653,221.231,0.01739,810.006,594.979,-14.47512
32539,19.99794,497.698,3.61335,232.992,0.01551,810.006,304.9905,-12.41817
32597,19.99752,513.544,3.42044,204.993,0.01669,810.006,14.95425,-10.65625
32655,19.99817,480.203,3.89981,234.892,0.0166,815.007,724.995,-15.65593
32713,19.99763,503.694,3.55216,213.289,0.01665,815.007,434.959,-13.45881
32771,19.99739,503.082,3.55674,216.082,0.01646,815.007,144.9705,-11.46048
32829,19.99762,495.12,3.68768,212.762,0.01733,820.007,854.964,-16.75725
32887,19.99783,494.138,3.69894,215.309,0.01718,820.007,564.975,-14.37639
32945,19.99814,492.267,3.7057,229.134,0.01617,820.007,274.987,-12.38795
33003,19.99771,499.023,3.62592,212.494,0.01706,825.008,984.98,-17.79986
33061,19.99744,518.535,3.3612,198.273,0.01695,825.008,694.992,-15.39637
33119,19.99807,497.468,3.64152,217.625,0.01673,825.008,404.955,-13.36054
33177,19.99824,469.244,4.09468,237.699,0.01723,825.008,114.967,-11.42815
33235,19.99767,479.01,3.94195,223.233,0.01766,830.0085,824.96,-16.59096
33293,19.99777,475.545,4.01951,216.111,0.0186,830.0085,534.972,-14.31757
33351,19.99784,507.703,3.49584,210.9402,0.01657,830.0085,244.983,-12.19292
33409,19.99783,503.475,3.55326,214.634,0.01655,835.009,954.9765,-17.72623
33467,19.99775,502.822,3.58068,204.8735,0.01748,835.009,664.988,-15.29962
33525,19.99758,490.894,3.75999,211.215,0.0178,835.009,374.999,-13.24871
33583,19.99761,494.025,3.69888,216.33,0.0171,835.009,84.963,-11.35941
33641,19.99766,497.123,3.64689,217.631,0.01676,840.01,794.9565,-16.49049
33699,19.99799,484.256,3.83747,230.204,0.01667,840.01,504.968,-14.27336
33757,19.99801,498.752,3.62522,215.338,0.01684,840.01,214.979,-12.10948
33815,19.99755,491.8801,3.74111,212.507,0.0176,845.01,924.973,-17.57906
33873,19.99798,502.555,3.53318,237.111,0.0149,845.01,634.984,-15.22437
33931,19.99814,499.645,3.58001,235.244,0.01522,845.01,344.9955,-13.15457
33989,19.99714,469.254,4.14572,212.946,0.01947,845.01,54.95925,-11.37331
34047,19.99775,510.397,3.43011,228.149,0.01503,850.011,764.953,-16.37029
34105,19.9975,531.844,3.1868,195.462,0.0163,850.011,474.964,-14.0952
34163,19.99812,506.189,3.49642,224.799,0.01555,850.011,184.9755,-12.13017
34221,19.99873,501.4265,3.57595,219.983,0.01626,855.012,894.969,-17.53237
34279,19.9979,502.826,3.5657,213.162,0.01673,855.012,604.98,-15.09074
34337,19.99744,504.594,3.53597,214.769,0.01646,855.012,314.992,-13.03202
34395,19.99817,431.695,4.91515,238.248,0.02063,855.012,24.9555,-11.16311
34453,19.99768,501.018,3.58539,217.943,0.01645,860.012,734.997,-16.28685
34511,19.99759,505.3662,3.53673,207.5776,0.01704,860.012,444.96,-14.07954
34569,19.99796,508.052,3.49366,209.19,0.0167,860.012,154.972,-12.01008
34627,19.99821,484.707,3.81813,237.28,0.01609,865.013,864.965,-17.33737
34685,19.99783,510.633,3.42677,228.11,0.01502,865.013,574.977,-14.97853
34743,19.99766,499.064,3.60367,225.3516,0.01599,865.013,284.988,-12.93961
34801,19.99775,510.66,3.43126,224.642,0.01527,870.0135,994.9815,-18.41674
34859,19.998,514.655,3.37226,226.285,0.0149,870.0135,704.993,-16.0428
34917,19.9974,488.401,3.78721,218.83,0.01731,870.0135,414.957,-13.95564
34975,19.99763,485.181,3.82022,231.012,0.01654,870.0135,124.968,-11.95869
35033,19.99807,478.858,3.92662,233.09,0.01685,875.014,834.9615,-17.28058
35091,19.99776,496.848,3.66293,211.144,0.01735,875.014,544.973,-14.87984
35149,19.99752,499.602,3.62778,206.536,0.01756,875.014,254.984,-12.77708
35207,19.99732,476.451,3.99553,219.538,0.0182,880.015,964.978,-18.32233
35265,19.99768,511.252,3.46404,199.269,0.01738,880.015,674.989,-15.8933
35323,19.99816,495.589,3.65449,227.808,0.01604,880.015,384.953,-13.8561
35381,19.99774,501.192,3.59582,210.376,0.01709,880.015,94.96425,-11.91092
35439,19.99783,472.216,4.05851,227.252,0.01786,885.015,804.958,-17.08795
35497,19.99772,482.279,3.86815,232.153,0.01666,885.015,514.969,-14.86591
35555,19.99731,482.89,3.86681,226.819,0.01705,885.015,224.9805,-12.66481
35613,19.99788,505.392,3.49471,234.2747,0.01492,890.016,934.974,-18.14956
35671,19.99833,511.55,3.43489,213.771,0.01607,890.016,644.985,-15.7676
35729,19.99755,493.416,3.70492,218.481,0.01696,890.016,354.997,-13.75601
35787,19.99737,472.651,4.05086,226.96,0.01785,890.016,64.9605,-11.87781
35845,19.99825,488.809,3.75897,231.289,0.01625,895.017,774.954,-16.94614
35903,19.99745,497.34,3.65192,212.821,0.01716,895.017,484.965,-14.69463
35961,19.99823,504.052,3.50132,244.435,0.01432,895.017,194.977,-12.64745
36019,19.9978,490.945,3.73207,226.177,0.0165,900.017,904.97,-18.0244
36077,19.99763,508.316,3.48152,214.0714,0.01626,900.017,614.982,-15.63272
36135,19.99788,501.354,3.57209,222.9804,0.01602,900.017,324.993,-13.58424
36193,19.99731,474.82,4.01888,222.797,0.01804,900.017,34.95675,-11.86647
36251,19.99803,500.268,3.5847,225.612,0.01589,905.018,744.998,-16.86635
36309,19.99805,490.562,3.77478,206.676,0.01826,905.018,454.962,-14.62349
36367,19.99753,491.1275,3.74625,216.39,0.01731,905.018,164.973,-12.56549
36425,19.99803,498.161,3.63895,212.851,0.0171,910.0185,874.9665,-17.89682
36483,19.99766,493.909,3.721,205.753,0.01808,910.0185,584.978,-15.63469
36541,19.998,505.584,3.49651,230.94,0.01514,910.0185,294.989,-13.53622
36599,19.99812,500.547,3.55754,241.581,0.01473,910.0185,4.953,-11.7753
36657,19.99773,510.769,3.43359,221.936,0.01547,915.019,714.994,-16.67456
36715,19.99793,499.156,3.60869,221.369,0.0163,915.019,424.958,-14.51564
36773,19.99766,494.311,3.70735,209.32,0.01771,915.019,134.969,-12.5061
36831,19.99781,500.421,3.60457,212.191,0.01699,920.02,844.963,-17.78087
36889,19.99806,492.202,3.71801,222.373,0.01672,920.02,554.974,-15.47963
36947,19.99798,500.738,3.59775,213.284,0.01687,920.02,264.9855,-13.38587
37005,19.99787,481.861,3.88962,224.226,0.01735,925.02,974.979,-18.84458
37063,19.9978,502.781,3.54717,225.0032,0.01576,925.02,684.99,-16.46201
37121,19.99767,481.647,3.91539,213.053,0.01838,925.02,394.954,-14.45215
37179,19.99822,488.112,3.73587,254.929,0.01465,925.02,104.9655,-12.53315
37237,19.99774,488.107,3.77177,230.539,0.01636,930.021,814.959,-17.66507
37295,19.99842,456.963,4.33512,239.153,0.01813,930.021,524.97,-15.40139
37353,19.99787,498.48,3.62646,217.079,0.01671,930.021,234.982,-13.21243
37411,19.99761,499.881,3.59598,222.2075,0.01618,935.022,944.975,-18.7548
37469,19.99791,486.654,3.83148,211.374,0.01813,935.022,654.987,-16.35805
37527,19.99742,503.866,3.53681,221.039,0.016,935.022,364.998,-14.29678
37585,19.99796,501.39,3.59505,209.123,0.01719,935.022,74.96175,-12.41647
37643,19.99733,499.5299,3.61196,215.866,0.01673,940.022,784.955,-17.52978
37701,19.99789,476.666,3.99237,219.23,0.01821,940.022,494.967,-15.27543
37759,19.99787,486.134,3.79519,236.504,0.01605,940.022,204.978,-13.1956
37817,19.99802,491.9117,3.72047,223.701,0.01663,945.023,914.9715,-18.64906
37875,19.99775,494.29,3.68431,222.239,0.01658,945.023,624.983,-16.20503
37933,19.99737,485.628,3.82676,222.896,0.01717,945.023,334.994,-14.16095
37991,19.99809,502.008,3.55878,225.134,0.01581,945.023,44.958,-12.45854
38049,19.99766,481.073,3.8868,233.5224,0.01664,950.0235,754.999,-17.40338
38107,19.9977,475.521,4.004,223.831,0.01789,950.0235,464.963,-15.19509
38165,19.99771,507.066,3.50807,209.333,0.01676,950.0235,174.974,-13.09684
38223,19.99803,493.926,3.68267,226.7899,0.01624,955.024,884.968,-18.57728
38281,19.99794,479.997,3.91179,230.0573,0.017,955.024,594.979,-16.1286
38339,19.99739,504.117,3.52166,228.555,0.01541,955.024,304.9905,-14.12409
38397,19.99772,472.59,4.05308,226.45,0.0179,955.024,14.95425,-12.35503
38455,19.99768,496.615,3.65501,217.607,0.0168,960.025,724.995,-17.30328
38513,19.99803,479.995,3.92088,225.121,0.01742,960.025,434.959,-15.11424
38571,19.99811,502.748,3.56431,214.704,0.0166,960.025,144.9705,-13.0779
38629,19.9975,484.801,3.88024,203.59,0.01906,965.025,854.964,-18.40944
38687,19.99809,507.244,3.48426,222.498,0.01566,965.025,564.975,-16.04422
38745,19.99788,497.038,3.64952,216.919,0.01682,965.025,274.987,-14.00926
38803,19.99749,478.6466,3.95134,221.733,0.01782,970.026,984.98,-19.45793
38861,19.99789,504.01,3.56111,205.573,0.01732,970.026,694.992,-17.07131
38919,19.99811,493.654,3.67846,232.224,0.01584,970.026,404.955,-15.02735
38977,19.99804,493.6689,3.68083,230.541,0.01597,970.026,114.967,-13.11771
39035,19.99791,471.354,4.10211,214.391,0.01913,975.027,824.96,-18.32232
39093,19.99832,490.095,3.75247,222.525,0.01686,975.027,534.972,-15.98279
39151,19.99779,477.19,4.03985,194.8756,0.02073,975.027,244.983,-13.84893
39209,19.99737,461.76,4.28983,215.2185,0.01993,980.027,954.9765,-19.37327
39267,19.99736,492.8623,3.72205,214.011,0.01739,980.027,664.988,-16.9761
39325,19.99771,495.6341,3.66487,220.977,0.01658,980.027,374.999,-14.90407
39383,19.99769,507.341,3.47452,228.124,0.01523,980.027,84.963,-13.0401
39441,19.99841,502.01,3.55531,227.444,0.01563,985.028,794.9565,-18.13939
39499,19.99763,495.641,3.69781,203.23,0.0182,985.028,504.968,-15.87952
39557,19.99797,489.282,3.76854,221.04,0.01705,985.028,214.979,-13.81762
39615,19.99744,496.139,3.67221,212.23,0.0173,990.0285,924.973,-19.23224
39673,19.99729,496.223,3.65638,220.396,0.01659,990.0285,634.984,-16.87955
39731,19.99768,478.8371,3.95502,218.203,0.01813,990.0285,344.9955,-14.77072
39789,19.99816,510.861,3.42437,227.526,0.01505,990.0285,54.95925,-13.01503
39847,19.99794,492.1954,3.73655,212.212,0.01761,995.029,764.953,-17.97152
39905,19.99784,463.735,4.22617,225.469,0.01874,995.029,474.964,-15.83364
39963,19.99782,483.394,3.87686,216.886,0.01788,995.029,184.9755,-13.76296
40000,19.99752,483.31,3.88166,215.18,0.01804,995.029,0,-12.68896